Folder: PhD_Markup_Experiment/Python Codes/Alyssa_Old_Files/Functions.py/EIS Results/LL GPE/2023/0523

Note: README.md
# PhD_Markup_Experiment
This is my trial of notekeeping on Github. Let's see how it works out

## Installation

The repository includes the battery analysis package in
`Python_Codes/BLeifer_Battery_Analysis`. To install the required
dependencies, navigate to that folder and run:

```bash
pip install .
```

Additional optional features are available. Install them by passing one
of the extras:

```bash
pip install ".[biologic_mpr]"  # BioLogic .mpr file support
pip install ".[eis]"          # EIS tools
pip install ".[pybamm]"       # PyBAMM modeling
pip install ".[all]"          # everything
```

### Development setup

Install the dependencies needed for running the tests and style checks:

```bash
pip install -r requirements-dev.txt
```

The package requires a running MongoDB instance for data storage.

## License

This project is licensed under the [MIT License](LICENSE).

## Dashboard

A lightweight Dash application provides a simple interface for monitoring battery tests.
To run the dashboard locally, install `dash` and execute:

```bash
pip install dash dash-bootstrap-components
python -m dashboard.app
```

The app currently uses placeholder data but is structured for MongoDB integration
via the functions in `dashboard/data_access.py`.

File: FullCell_EMD_ZnAnode_Calendar_30C_EIS_RT_C01.mpt
EC-Lab ASCII FILE
Nb header lines : 62

Potentio Electrochemical Impedance Spectroscopy

Run on channel : 1 (SN 35512)
User :
CE vs. WE compliance from -10 V to 10 V
Electrode connection : standard
Ewe ctrl range : min = -5.00 V, max = 5.00 V
Safety Limits :
	Do not start on E overload
Acquisition started on : 05/22/2023 17:27:28
Technique started on : 05/22/2023 17:27:30
Saved on :
	File : FullCell_EMD_ZnAnode_Calendar_30C_EIS_RT_C01.mpr
	Directory : C:\Users\CESL\Documents\EC-Lab\Data\PhD\Leifer\Results\Zn Ion GPE\2023\0523\
	Host : 10.110.196.171
Device : VSP (SN 1724)
Address : USB
EC-Lab for windows v11.16 (software)
Internet server v11.16 (firmware)
Command interpretor v11.16 (firmware)
Electrode material : Au/Pd
Initial state :
Electrolyte : NaCl (0.2M)
Comments : Fe(CN)63-/Fe(CN)64- 5.10-3 M
Reference electrode : SCE Saturated Calomel Electrode (0.241 V)
Electrode surface area : 0.001 cm²
Characteristic mass : 0.001 g
Equivalent Weight : 0.000 g/eq.
Density : 0.000 g/cm3
Cycle Definition : Charge/Discharge alternance
Mode                Single sine
E (V)               0.0000
vs.                 Eoc
tE (h:m:s)          0:00:0.0000
record              0
dI                  0.000
unit dI             mA
dt (s)              0.000
fi                  1.000
unit fi             MHz
ff                  10.000
unit ff             mHz
Nd                  6
Points              per decade
spacing             Logarithmic
Va (mV)             10.0
pw                  0.10
Na                  2
corr                1
E range min (V)     -5.000
E range max (V)     5.000
I Range             Auto
Bandwidth           5
nc cycles           0
goto Ns'            0
nr cycles           0
inc. cycle          0

freq/Hz	Re(Z)/Ohm	-Im(Z)/Ohm	|Z|/Ohm	Phase(Z)/deg	time/s	<Ewe>/V	<I>/mA	Cs/µF	Cp/µF	cycle number	I Range	|Ewe|/V	|I|/A	Re(Y)/Ohm-1	Im(Y)/Ohm-1	|Y|/Ohm-1	Phase(Y)/deg
1.00002e+06	-13.0899	8.00492	15.3435	-148.553	2.3071	0.730852	-0.00370192	0.0198817	0.00541152	1	10	0.000134193	8.74592e-06	-0.0556014	0.0340022	0.0651741	148.553
675752	11.4141	-5.53523	12.6854	25.871	2.71608	0.730261	-0.00164698	-0.0425498	-0.00810139	1	10	0.000670479	5.28543e-05	0.0709302	-0.0343975	0.0788307	-25.871
456640	6.69879	-2.05124	7.00581	17.0252	3.1251	0.73037	-0.00273038	-0.169914	-0.0145662	1	10	0.00243513	0.000347587	0.136483	-0.0417927	0.142739	-17.0252
308574	5.72638	-0.984136	5.81033	9.7516	3.53408	0.730188	0.000506812	-0.524089	-0.0150354	1	10	0.00653875	0.00112537	0.169621	-0.029151	0.172107	-9.7516
208525	5.36008	-0.409588	5.37571	4.36973	3.94308	0.730118	0.00138513	-1.86344	-0.0108178	1	10	0.0104914	0.00195162	0.185481	-0.0141735	0.186022	-4.36973
140908	5.24778	0.00735766	5.24779	-0.0803316	4.48409	0.730145	0.00291607	153.513	0.000301767	1	10	0.0101558	0.00193525	0.190556	0.00026717	0.190557	0.0803316
95214.8	5.25614	0.379706	5.26983	-4.1319	5.02509	0.730149	0.0026289	4.40218	0.0228544	1	10	0.0101061	0.00191772	0.189266	0.0136727	0.189759	4.1319
64345.7	5.3449	0.748144	5.397	-7.96812	5.4341	0.73018	0.0037179	3.3061	0.0635302	1	10	0.0107855	0.00199842	0.183499	0.025685	0.185288	7.96812
43476.5	5.50431	1.1367	5.62046	-11.6682	5.8431	0.730162	0.00350532	3.22047	0.131725	1	10	0.0107047	0.00190459	0.174245	0.0359834	0.177921	11.6682
29384.8	5.72206	1.56859	5.93316	-15.3299	6.2521	0.730142	0.00339717	3.45293	0.241343	1	10	0.0105348	0.00177558	0.162547	0.0445592	0.168544	15.3299
19853.5	5.97454	2.07662	6.32515	-19.1664	6.66109	0.730164	0.00375332	3.86033	0.416101	1	10	0.0104086	0.00164559	0.149335	0.0519058	0.158099	19.1664
13418	6.25519	2.74369	6.83047	-23.6835	7.0701	0.73017	0.00441343	4.32313	0.697537	1	10	0.0101314	0.00148327	0.134073	0.0588077	0.146403	23.6835
9082.03	6.55649	3.67621	7.51679	-29.2793	7.36733	0.730167	0.00640496	4.76691	1.14018	1	10	0.0106054	0.0014109	0.11604	0.0650633	0.133036	29.2793
6140.96	6.89159	4.94769	8.48373	-35.6758	7.77063	0.730178	0.00714339	5.23819	1.78161	1	10	0.0105564	0.00124431	0.0957515	0.0687432	0.117873	35.6758
4141.32	7.31262	6.80796	9.99113	-42.9531	8.23669	0.730213	0.0108803	5.645	2.62101	1	10	0.0103789	0.00103882	0.0732561	0.0682005	0.100089	42.9531
2797.31	7.82602	9.48599	12.2976	-50.4771	8.70293	0.730213	0.0105111	5.99786	3.5688	1	10	0.0101851	0.000828222	0.0517489	0.0627253	0.0813168	50.4771
1890.6	8.54004	13.3364	15.8364	-57.3663	9.16667	0.73021	0.010071	6.3122	4.47656	1	10	0.0100327	0.000633523	0.0340523	0.0531771	0.0631456	57.3663
1287.12	9.50233	18.7261	20.9991	-63.0951	9.6332	0.730213	0.0105279	6.6032	5.25108	1	10	0.00993822	0.000473269	0.0215491	0.0424665	0.0476211	63.0951
863.066	11.105	26.7247	28.9402	-67.4355	10.1002	0.730213	0.00976891	6.90021	5.8842	1	10	0.00988284	0.000341492	0.0132592	0.0319089	0.0345541	67.4355
583.692	13.5046	37.926	40.2586	-70.4003	10.8192	0.73019	-0.000817735	7.1895	6.38051	1	11	0.0100707	0.000250151	0.00833228	0.0234002	0.0248394	70.4003
394.117	17.1486	53.609	56.285	-72.2614	11.2862	0.73019	-0.000558407	7.53281	6.83356	1	11	0.00994721	0.000176729	0.00541308	0.016922	0.0177667	72.2614
266.449	22.8057	75.3046	78.6822	-73.1513	11.7497	0.730195	-0.000632983	7.93202	7.26565	1	11	0.00988734	0.000125662	0.00368375	0.0121638	0.0127094	73.1513
180.058	31.3433	105.212	109.781	-73.4109	12.2147	0.730189	-0.000595324	8.40124	7.71643	1	11	0.00985653	8.97832e-05	0.00260068	0.00872987	0.00910901	73.4109
121.595	44.5455	146.473	153.097	-73.0844	12.6751	0.730199	-0.000714642	8.93603	8.17952	1	11	0.00984516	6.43066e-05	0.00190051	0.0062492	0.0065318	73.0844
82.2368	65.0473	203.222	213.379	-72.2512	13.3763	0.730194	-0.00130694	9.52319	8.6382	1	12	0.009892	4.63589e-05	0.00142865	0.00446344	0.0046865	72.2512
55.5152	96.028	279.192	295.245	-71.0194	13.8389	0.730198	-0.00132458	10.2685	9.1822	1	12	0.00985684	3.33853e-05	0.00110162	0.00320286	0.00338702	71.0194
37.5601	143.982	379.561	405.952	-69.2263	14.3298	0.730199	-0.00143976	11.1638	9.75944	1	12	0.00984189	2.42439e-05	0.000873694	0.0023032	0.00246334	69.2263
25.3653	218.299	511.993	556.589	-66.908	14.7888	0.7302	-0.00147706	12.2551	10.3699	1	12	0.00983216	1.7665e-05	0.000704666	0.0016527	0.00179666	66.908
17.1327	329.591	672.405	748.838	-63.8874	15.2018	0.73019	-0.00154299	13.8154	11.1391	1	12	0.00982931	1.31261e-05	0.000587759	0.0011991	0.0013354	63.8874
11.5912	503.092	861.039	997.241	-59.7029	15.6113	0.730182	-0.00146246	15.9466	11.8881	1	12	0.00982867	9.85586e-06	0.000505879	0.00086581	0.00100277	59.7029
7.82815	758.34	1082.33	1321.56	-54.9828	16.4992	0.730201	-0.00154385	18.7845	12.5993	1	13	0.00984066	7.44624e-06	0.0004342	0.000619707	0.000756681	54.9828
5.29302	1106.67	1281.15	1692.95	-49.1794	17.3358	0.730203	-0.00158565	23.4701	13.441	1	13	0.00983792	5.81112e-06	0.000386127	0.000447008	0.000590686	49.1794
3.57551	1546.29	1410.09	2092.7	-42.3623	18.5513	0.730205	-0.00162852	31.5671	14.3323	1	13	0.0098319	4.6982e-06	0.000353085	0.000321984	0.000477852	42.3623
2.41723	2029.33	1445.19	2491.34	-35.4565	20.3285	0.730206	-0.00167663	45.5594	15.3307	1	13	0.00983056	3.9459e-06	0.000326956	0.000232841	0.000401391	35.4565
1.63271	2459.14	1354.72	2807.6	-28.8501	22.9394	0.730202	-0.00121844	71.9551	16.7529	1	13	0.00982879	3.50078e-06	0.000311969	0.000171862	0.000356176	28.8501
1.10206	2949.17	1255.41	3205.25	-23.0586	28.6524	0.730199	-0.00150596	115.035	17.6472	1	14	0.00983052	3.067e-06	0.000287062	0.000122197	0.000311988	23.0586
0.745609	3252.15	1102.45	3433.93	-18.7262	34.3241	0.730206	-0.0016928	193.62	19.9565	1	14	0.00983197	2.86319e-06	0.000275796	9.34923e-05	0.000291212	18.7262
0.503902	3547.16	934.809	3668.27	-14.7639	42.7	0.730203	-0.0017234	337.871	21.9419	1	14	0.00983015	2.67978e-06	0.000263608	6.94705e-05	0.000272608	14.7639
0.340103	3785.05	886.678	3887.52	-13.1842	55.0934	0.730202	-0.00175531	527.769	27.4556	1	14	0.00982858	2.52824e-06	0.000250453	5.86706e-05	0.000257233	13.1842
0.230213	4138.12	982.059	4253.06	-13.3505	73.3867	0.730199	-0.00176815	703.968	37.5341	1	14	0.00982734	2.31065e-06	0.000228771	5.4292e-05	0.000235125	13.3505
0.155473	4483.08	1101.68	4616.46	-13.8064	100.458	0.730202	-0.00178317	929.203	52.918	1	14	0.00982876	2.12907e-06	0.000210358	5.16937e-05	0.000216616	13.8064
0.105049	4826.01	1303.48	4998.94	-15.1146	140.507	0.730199	-0.00180203	1162.32	79.0269	1	14	0.0098284	1.9661e-06	0.000193122	5.21611e-05	0.000200042	15.1146
0.0710227	5440.81	1636.57	5681.61	-16.7411	199.728	0.730197	-0.00174919	1369.27	113.609	1	14	0.00982708	1.72963e-06	0.000168547	5.06981e-05	0.000176006	16.7411
0.0479883	6135.78	2086.89	6480.97	-18.7841	287.359	0.7302	-0.00170418	1589.23	164.78	1	14	0.00982808	1.51645e-06	0.00014608	4.96843e-05	0.000154298	18.7841
0.0324439	6993.89	2900.41	7571.45	-22.5241	416.959	0.730167	-0.00162983	1691.33	248.192	1	14	0.00982886	1.29815e-06	0.000122	5.05942e-05	0.000132075	22.5241
0.0219206	7973.56	4077.76	8955.77	-27.0857	608.76	0.730163	-0.00152831	1780.52	369.134	1	14	0.00982699	1.09728e-06	9.94137e-05	5.08412e-05	0.00011166	27.0857
0.0148076	9007.46	5634.65	10624.7	-32.0282	892.678	0.730185	-0.00144021	1907.51	536.502	1	14	0.00982789	9.25006e-07	7.97942e-05	4.99156e-05	9.41206e-05	32.0282
0.0100006	10378.4	7940.17	13067.4	-37.4184	1313.05	0.730186	-0.00134041	2004.3	740.016	1	14	0.00982817	7.52111e-07	6.07785e-05	4.64996e-05	7.65261e-05	37.4184

File: FullCell_EMD_ZnAnode_Calendar_60C_EIS_RT_C01.mpt
EC-Lab ASCII FILE
Nb header lines : 62

Potentio Electrochemical Impedance Spectroscopy

Run on channel : 1 (SN 35512)
User :
CE vs. WE compliance from -10 V to 10 V
Electrode connection : standard
Ewe ctrl range : min = -5.00 V, max = 5.00 V
Safety Limits :
	Do not start on E overload
Acquisition started on : 05/22/2023 17:56:12
Technique started on : 05/22/2023 17:56:13
Saved on :
	File : FullCell_EMD_ZnAnode_Calendar_60C_EIS_RT_C01.mpr
	Directory : C:\Users\CESL\Documents\EC-Lab\Data\PhD\Leifer\Results\Zn Ion GPE\2023\0523\
	Host : 10.110.196.171
Device : VSP (SN 1724)
Address : USB
EC-Lab for windows v11.16 (software)
Internet server v11.16 (firmware)
Command interpretor v11.16 (firmware)
Electrode material : Au/Pd
Initial state :
Electrolyte : NaCl (0.2M)
Comments : Fe(CN)63-/Fe(CN)64- 5.10-3 M
Reference electrode : SCE Saturated Calomel Electrode (0.241 V)
Electrode surface area : 0.001 cm²
Characteristic mass : 0.001 g
Equivalent Weight : 0.000 g/eq.
Density : 0.000 g/cm3
Cycle Definition : Charge/Discharge alternance
Mode                Single sine
E (V)               0.0000
vs.                 Eoc
tE (h:m:s)          0:00:0.0000
record              0
dI                  0.000
unit dI             mA
dt (s)              0.000
fi                  1.000
unit fi             MHz
ff                  10.000
unit ff             mHz
Nd                  6
Points              per decade
spacing             Logarithmic
Va (mV)             10.0
pw                  0.10
Na                  2
corr                1
E range min (V)     -5.000
E range max (V)     5.000
I Range             Auto
Bandwidth           5
nc cycles           0
goto Ns'            0
nr cycles           0
inc. cycle          0

freq/Hz	Re(Z)/Ohm	-Im(Z)/Ohm	|Z|/Ohm	Phase(Z)/deg	time/s	<Ewe>/V	<I>/mA	Cs/µF	Cp/µF	cycle number	I Range	|Ewe|/V	|I|/A	Re(Y)/Ohm-1	Im(Y)/Ohm-1	|Y|/Ohm-1	Phase(Y)/deg
1.00002e+06	0.66831	4.06579	4.12035	-80.6655	1.9751	0.723984	0.0493893	0.0391442	0.0381144	1	9	0.000114757	2.78512e-05	0.039365	0.239484	0.242698	80.6655
675752	9.53136	-5.54263	11.0258	30.1786	2.6781	0.723544	-0.00260172	-0.042493	-0.0107382	1	10	0.000577494	5.23767e-05	0.0784038	-0.045593	0.0906966	-30.1786
456640	5.64378	-2.11118	6.02572	20.5094	3.08708	0.723649	-0.00157052	-0.16509	-0.0202653	1	10	0.00210075	0.00034863	0.155436	-0.0581443	0.165955	-20.5094
308574	4.81911	-1.03111	4.92819	12.0771	3.49609	0.723465	-0.000322994	-0.500212	-0.0218974	1	10	0.00556371	0.00112896	0.198423	-0.0424553	0.202914	-12.0771
208525	4.51367	-0.446052	4.53566	5.64379	3.9051	0.723405	-0.000280072	-1.7111	-0.0165488	1	10	0.010302	0.00227133	0.219406	-0.0216823	0.220475	-5.64379
140908	4.41026	-0.0210628	4.41031	0.273634	4.4461	0.723431	0.00348109	-53.6251	-0.0012231	1	10	0.0100999	0.00229006	0.226739	-0.00108287	0.226741	-0.273634
95214.8	4.41126	0.360873	4.42599	-4.6768	4.98708	0.72343	0.00417478	4.63192	0.0307928	1	10	0.010133	0.00228942	0.225186	0.0184218	0.225938	4.6768
64345.7	4.47801	0.75874	4.54183	-9.61669	5.3961	0.723439	0.00391184	3.25993	0.090977	1	10	0.0108022	0.00237839	0.217081	0.0367816	0.220175	9.61669
43476.5	4.62162	1.20288	4.77559	-14.5889	5.80509	0.723434	0.0039305	3.04328	0.193078	1	10	0.0107624	0.00225363	0.202647	0.0527435	0.209398	14.5889
29384.8	4.85508	1.71958	5.1506	-19.5032	6.21408	0.723442	0.00338785	3.14975	0.351077	1	10	0.0107226	0.00208181	0.183012	0.0648194	0.194152	19.5032
19853.5	5.16765	2.32499	5.66658	-24.2235	6.62309	0.723439	0.00260839	3.44796	0.580445	1	10	0.0104455	0.00184335	0.160935	0.0724066	0.176473	24.2235
13418	5.5392	3.07569	6.33582	-29.0417	7.03209	0.723439	0.00426053	3.85647	0.908806	1	10	0.0102719	0.00162124	0.137988	0.0766192	0.157833	29.0417
9082.03	5.99822	4.0352	7.22921	-33.93	7.32933	0.72345	0.00629494	4.34283	1.35307	1	10	0.0106043	0.00146687	0.114773	0.0772117	0.138328	33.93
6140.96	6.50115	5.34139	8.414	-39.4068	7.73264	0.723453	0.00727392	4.8521	1.95539	1	10	0.0104021	0.00123629	0.0918301	0.0754483	0.11885	39.4068
4141.32	7.10472	7.14245	10.0743	-45.1517	8.19969	0.723481	0.0123199	5.38064	2.70457	1	10	0.0101305	0.00100558	0.070003	0.0703748	0.0992625	45.1517
2797.31	7.77811	9.65601	12.3991	-51.1478	8.66594	0.723484	0.0120887	5.89225	3.57352	1	10	0.00991026	0.000799273	0.0505935	0.0628084	0.0806511	51.1478
1890.6	8.60126	13.2712	15.8148	-57.0522	9.12968	0.723484	0.0120364	6.34321	4.46688	1	10	0.00977082	0.000617829	0.0343904	0.0530622	0.063232	57.0522
1287.12	9.59428	18.3226	20.6825	-62.362	9.59619	0.72348	0.0121073	6.74863	5.29641	1	10	0.00968089	0.000468071	0.0224287	0.0428331	0.04835	62.362
863.066	11.0037	25.9116	28.1512	-66.9908	10.0632	0.723487	0.0119506	7.11675	6.02941	1	10	0.00962284	0.000341826	0.013885	0.0326963	0.0355224	66.9908
583.692	13.0938	36.7422	39.0056	-70.3856	10.7822	0.723464	-0.000286958	7.42114	6.58487	1	11	0.00981526	0.000251637	0.00860618	0.0241497	0.0256373	70.3856
394.117	16.2204	52.0592	54.5276	-72.6942	11.2492	0.72347	-0.000360787	7.75706	7.07065	1	11	0.00969124	0.000177731	0.00545541	0.0175091	0.0183393	72.6942
266.449	20.9982	73.4956	76.4364	-74.055	11.7127	0.723465	-0.000396398	8.12726	7.51391	1	11	0.00962048	0.000125863	0.00359403	0.0125794	0.0130828	74.055
180.058	28.513	103.507	107.363	-74.5988	12.1777	0.723467	-0.000510496	8.53959	7.93729	1	11	0.00959623	8.93812e-05	0.00247363	0.00897973	0.0093142	74.5988
121.595	39.9032	145.309	150.688	-74.6446	12.6381	0.723461	-0.000536971	9.00765	8.37601	1	11	0.00958042	6.35778e-05	0.00175731	0.00639932	0.00663622	74.6446
82.2368	57.9353	202.564	210.686	-74.0389	13.0933	0.723473	-0.000671949	9.55416	8.83171	1	11	0.00957215	4.54333e-05	0.00130519	0.00456342	0.0047464	74.0389
55.5152	86.4246	281.986	294.933	-72.9605	13.8059	0.723476	-0.00110347	10.1667	9.29372	1	12	0.00959974	3.25489e-05	0.000993551	0.00324176	0.0033906	72.9605
37.5601	130.192	388.145	409.398	-71.4575	14.2977	0.723481	-0.00112444	10.9169	9.81288	1	12	0.00958473	2.34118e-05	0.000776769	0.00231581	0.00244261	71.4575
25.3653	200.596	529.128	565.876	-69.2379	14.7569	0.723469	-0.00110416	11.8582	10.3681	1	12	0.00957573	1.6922e-05	0.000626441	0.00165241	0.00176717	69.2379
17.1327	312.701	706.079	772.224	-66.1129	15.1698	0.723465	-0.00135629	13.1565	10.9992	1	12	0.00957395	1.23979e-05	0.000524376	0.00118404	0.00129496	66.1129
11.5912	473.098	934.758	1047.66	-63.1552	15.5793	0.723461	-0.00129508	14.689	11.6936	1	12	0.00956345	9.12839e-06	0.000431032	0.000851643	0.000954507	63.1552
7.82815	727.102	1179.92	1385.96	-58.3573	16.4683	0.723471	-0.00124959	17.231	12.4885	1	13	0.00957634	6.90954e-06	0.000378525	0.000614258	0.000721522	58.3573
5.29302	1086.23	1439.59	1803.42	-52.9638	17.3047	0.723472	-0.00126083	20.8871	13.3095	1	13	0.00957171	5.30753e-06	0.000333987	0.000442634	0.000554502	52.9638
3.57551	1554.2	1650.52	2267.1	-46.7216	18.5203	0.723478	-0.00128453	26.9687	14.2942	1	13	0.00957055	4.22149e-06	0.000302387	0.000321128	0.000441091	46.7216
2.41723	2117.49	1770.95	2760.44	-39.9073	20.2975	0.72348	-0.00132099	37.1787	15.3021	1	13	0.0095722	3.46763e-06	0.000277884	0.000232408	0.000362261	39.9073
1.63271	2708.95	1759.28	3230.09	-33.001	22.9083	0.72348	-0.00135245	55.4087	16.4368	1	13	0.00957077	2.96301e-06	0.000259641	0.000168619	0.000309589	33.001
1.10206	3248.51	1642.41	3640.1	-26.8206	28.6217	0.723478	-0.00140432	87.9294	17.9007	1	14	0.00957124	2.62939e-06	0.000245165	0.000123952	0.000274718	26.8206
0.745609	3695.32	1451.24	3970.07	-21.4411	34.2934	0.723474	-0.0014414	147.085	19.654	1	14	0.00957005	2.41055e-06	0.000234453	9.20752e-05	0.000251885	21.4411
0.503902	4050.13	1266.73	4243.61	-17.3678	42.6692	0.723477	-0.00147925	249.338	22.2172	1	14	0.0095712	2.25544e-06	0.000224905	7.0342e-05	0.000235649	17.3678
0.340103	4348.45	1142.4	4496.01	-14.7198	55.0627	0.723477	-0.00150108	409.63	26.4469	1	14	0.00956982	2.12852e-06	0.00021512	5.6515e-05	0.00022242	14.7198
0.230213	4612.05	1104.86	4742.55	-13.4719	73.356	0.723469	-0.00151373	625.723	33.9607	1	14	0.00956911	2.01771e-06	0.000205055	4.9123e-05	0.000210857	13.4719
0.155473	4892.79	1154.19	5027.08	-13.2732	100.427	0.723472	-0.00152331	886.926	46.7534	1	14	0.00956927	1.90354e-06	0.000193609	4.56717e-05	0.000198923	13.2732
0.105049	5211.76	1335.69	5380.2	-14.3746	140.477	0.723473	-0.00153374	1134.29	69.9095	1	14	0.00956858	1.77848e-06	0.000180048	4.61432e-05	0.000185867	14.3746
0.0710227	5589.46	1665.91	5832.43	-16.5964	199.697	0.723474	-0.00151617	1345.15	109.743	1	14	0.00956898	1.64065e-06	0.000164312	4.89725e-05	0.000171455	16.5964
0.0479883	6076.89	2191.11	6459.85	-19.8275	287.328	0.723474	-0.001494	1513.63	174.142	1	14	0.00956947	1.48138e-06	0.000145626	5.25073e-05	0.000154802	19.8275
0.0324439	6653.93	2989.16	7294.51	-24.1912	416.928	0.723468	-0.00144594	1641.11	275.577	1	14	0.0095677	1.31163e-06	0.000125051	5.61768e-05	0.000137089	24.1912
0.0219206	7377.15	4190.46	8484.24	-29.598	608.729	0.723472	-0.00139492	1732.63	422.672	1	14	0.00956623	1.12753e-06	0.000102486	5.82151e-05	0.000117866	29.598
0.0148076	8221.46	5941.26	10143.5	-35.8539	892.647	0.72347	-0.00133568	1809.08	620.635	1	14	0.00956715	9.43179e-07	7.99046e-05	5.77433e-05	9.85852e-05	35.8539
0.0100006	9468.7	8276.94	12576.3	-41.1579	1313.02	0.72347	-0.00127057	1922.75	832.827	1	14	0.00956642	7.60669e-07	5.98663e-05	5.23314e-05	7.95145e-05	41.1579