Folder: PhD_Markup_Experiment/Python Codes/Alyssa_Old_Files/Functions.py/EIS Results/EIS_2023_07_08_Temp_In_Out_GB (part 6)

File: 0708_01_EIS_0.5MTFSI_Blocking_OutsideGB_24hr_60C_t2_C03.mpt
EC-Lab ASCII FILE
Nb header lines : 62

Potentio Electrochemical Impedance Spectroscopy

Run on channel : 3 (SN 35515)
User :
CE vs. WE compliance from -10 V to 10 V
Electrode connection : standard
Ewe ctrl range : min = -5.00 V, max = 5.00 V
Safety Limits :
	Do not start on E overload
Acquisition started on : 07/09/2023 16:26:51
Technique started on : 07/09/2023 16:26:53
Saved on :
	File : 0708_01_EIS_0.5MTFSI_Blocking_OutsideGB_24hr_60C_t2_C03.mpr
	Directory : C:\Users\CESL\Documents\EC-Lab\Data\PhD\Leifer\Results\Zn Ion GPE\2023\0708\
	Host : 10.110.196.171
Device : VSP (SN 1724172417241724)
Address : USB
EC-Lab for windows v11.16 (software)
Internet server v11.16 (firmware)
Command interpretor v11.16 (firmware)
Electrode material : Au/Pd
Initial state :
Electrolyte : NaCl (0.2M)
Comments : Fe(CN)63-/Fe(CN)64- 5.10-3 M
Reference electrode : SCE Saturated Calomel Electrode (0.241 V)
Electrode surface area : 0.001 cm²
Characteristic mass : 0.001 g
Equivalent Weight : 0.000 g/eq.
Density : 0.000 g/cm3
Cycle Definition : Charge/Discharge alternance
Mode                Single sine
E (V)               0.0000
vs.                 Eoc
tE (h:m:s)          0:00:0.0000
record              0
dI                  0.000
unit dI             mA
dt (s)              0.000
fi                  1.000
unit fi             MHz
ff                  10.000
unit ff             mHz
Nd                  6
Points              per decade
spacing             Logarithmic
Va (mV)             10.0
pw                  0.10
Na                  2
corr                1
E range min (V)     -5.000
E range max (V)     5.000
I Range             Auto
Bandwidth           5
nc cycles           0
goto Ns'            0
nr cycles           0
inc. cycle          0

freq/Hz	Re(Z)/Ohm	-Im(Z)/Ohm	|Z|/Ohm	Phase(Z)/deg	time/s	<Ewe>/V	<I>/mA	Cs/µF	Cp/µF	cycle number	I Range	|Ewe|/V	|I|/A	Re(Y)/Ohm-1	Im(Y)/Ohm-1	|Y|/Ohm-1	Phase(Y)/deg
1.00002e+06	-61.664	13.8313	63.1962	-167.358	2.63908	-0.00352538	-0.00243864	0.0115067	0.000551179	1	11	0.00025815	4.0849e-06	-0.0154401	0.00346323	0.0158237	167.358
675752	34.0488	-10.5782	35.6542	17.2588	3.04809	-0.00418464	-0.0012223	-0.022265	-0.00195985	1	11	0.00124518	3.49237e-05	0.0267844	-0.00832127	0.0280472	-17.2588
456640	19.9974	-3.90345	20.3748	11.0451	3.7511	-0.00419353	0.00151064	-0.0892888	-0.00327723	1	10	0.00688743	0.000338037	0.0481711	-0.0094029	0.0490802	-11.0451
308574	16.6903	-2.0726	16.8185	7.07875	4.16009	-0.00445848	0.00154794	-0.248854	-0.00377921	1	10	0.0106608	0.00063387	0.059005	-0.00732724	0.0594583	-7.07875
208525	15.5104	-1.17698	15.555	4.33948	4.70109	-0.00446256	0.00176612	-0.648473	-0.00371271	1	10	0.0101684	0.000653706	0.0641038	-0.00486441	0.0642881	-4.33948
140908	15.0285	-0.632522	15.0418	2.41005	5.24209	-0.00445078	0.00215774	-1.7857	-0.00315761	1	10	0.0101284	0.000673353	0.0664225	-0.0027956	0.0664814	-2.41005
95214.8	14.8436	-0.214481	14.8451	0.827833	5.65109	-0.00444795	0.00169899	-7.7934	-0.00162681	1	10	0.010822	0.000728996	0.0673551	-0.000973242	0.0673622	-0.827833
64345.7	14.8074	0.102242	14.8077	-0.395611	6.06008	-0.00443632	0.00309575	24.1919	0.00115333	1	10	0.010566	0.000713544	0.0675306	0.000466287	0.0675322	0.395611
43476.5	14.7997	0.411934	14.8054	-1.59435	6.46909	-0.00443909	0.00265378	8.88664	0.0068794	1	10	0.0103639	0.000700009	0.0675166	0.00187925	0.0675428	1.59435
29384.8	14.8446	0.734411	14.8627	-2.83231	6.8781	-0.00444744	0.00285705	7.37495	0.0180069	1	10	0.0102624	0.000690481	0.0672002	0.00332462	0.0672824	2.83231
19853.5	14.8937	1.13203	14.9366	-4.34655	7.28708	-0.00442937	0.00294843	7.08148	0.0406758	1	10	0.0101806	0.000681586	0.0667569	0.00507403	0.0669495	4.34655
13418	14.9957	1.67546	15.089	-6.37521	7.56409	-0.0044401	0.00189853	7.07943	0.0872869	1	10	0.0107896	0.000715066	0.0658637	0.00735895	0.0662735	6.37521
9082.03	15.1036	2.41603	15.2956	-9.08829	8.00133	-0.00442271	0.00272092	7.25329	0.180971	1	10	0.0100882	0.000659549	0.0645576	0.0103269	0.0653784	9.08829
6140.96	15.3011	3.47758	15.6913	-12.8045	8.40463	-0.00443662	0.000576355	7.45257	0.366051	1	10	0.0102223	0.00065146	0.0621446	0.014124	0.0637295	12.8045
4141.32	15.588	4.94456	16.3534	-17.5992	8.87069	-0.00440269	0.00350602	7.77237	0.710548	1	10	0.0102589	0.000627326	0.0582873	0.018489	0.0611494	17.5992
2797.31	16.0516	6.98442	17.5053	-23.515	9.33693	-0.0043961	0.00337921	8.14608	1.2968	1	10	0.0102564	0.000585905	0.0523817	0.0227925	0.0571256	23.515
1890.6	16.7942	9.86705	19.4783	-30.4354	9.80167	-0.00440333	0.00368317	8.53163	2.1893	1	10	0.0102433	0.000525882	0.0442647	0.0260068	0.0513393	30.4354
1287.12	17.8005	13.7213	22.4752	-37.6262	10.2682	-0.00440381	0.00325799	9.01173	3.35885	1	10	0.0102168	0.000454581	0.0352394	0.0271637	0.0444936	37.6262
863.066	19.4558	19.2933	27.4	-44.7597	10.7352	-0.00440215	0.00374284	9.55804	4.73894	1	10	0.0101973	0.000372163	0.0259148	0.0256984	0.0364963	44.7597
583.692	21.8187	26.6734	34.4605	-50.717	11.4542	-0.00443156	0.000372584	10.2225	6.1245	1	11	0.0103784	0.000301167	0.0183732	0.0224613	0.0290187	50.717
394.117	25.2656	36.7214	44.5737	-55.4706	11.9212	-0.00443026	0.000357666	10.997	7.46375	1	11	0.0102717	0.000230442	0.0127167	0.0184826	0.0224348	55.4706
266.449	30.3002	50.1856	58.6233	-58.878	12.3847	-0.00443302	0.000323541	11.9022	8.72255	1	11	0.0102177	0.000174293	0.00881667	0.0146029	0.0170581	58.878
180.058	37.2908	68.1784	77.7104	-61.3232	12.8497	-0.00443203	0.000399432	12.9647	9.97925	1	11	0.010187	0.00013109	0.0061751	0.0112899	0.0128683	61.3232
121.595	46.9829	92.1798	103.463	-62.9926	13.3101	-0.00443553	0.000239441	14.1993	11.2713	1	11	0.010166	9.82578e-05	0.00438908	0.0086113	0.00966533	62.9926
82.2368	60.1565	124.005	137.826	-64.1214	13.7653	-0.00443263	0.000290532	15.6068	12.6337	1	11	0.0101569	7.36931e-05	0.00316677	0.00652793	0.0072555	64.1214
55.5152	77.5941	166.869	184.027	-65.0615	14.2269	-0.00443255	0.000331742	17.1804	14.126	1	11	0.0101512	5.51613e-05	0.00229121	0.00492732	0.00543398	65.0615
37.5601	101.654	224.894	246.802	-65.6767	14.9838	-0.00442187	-8.83412e-05	18.8415	15.645	1	12	0.0101729	4.1219e-05	0.00166889	0.00369218	0.00405184	65.6767
25.3653	133.616	301.243	329.546	-66.0803	15.4429	-0.00444072	-1.29566e-05	20.8288	17.4047	1	12	0.0101572	3.08219e-05	0.00123034	0.00277386	0.00303448	66.0803
17.1327	178.772	403.987	441.775	-66.1297	15.8558	-0.00444189	-0.000182242	22.9947	19.2291	1	12	0.0101495	2.29743e-05	0.000916004	0.00206997	0.00226359	66.1297
11.5912	234.49	542.713	591.204	-66.6323	16.2653	-0.00444703	-6.44753e-05	25.3	21.3199	1	12	0.0101538	1.71748e-05	0.000670886	0.00155273	0.00169146	66.6323
7.82815	312.508	722.464	787.156	-66.6087	16.8473	-0.00443813	-2.94492e-05	28.1413	23.7058	1	12	0.0101549	1.29008e-05	0.000504358	0.00116599	0.0012704	66.6087
5.29302	410.739	968.924	1052.39	-67.0273	18.1107	-0.00443523	-2.97638e-06	31.0332	26.306	1	13	0.0101549	9.64936e-06	0.000370864	0.000874859	0.00095022	67.0273
3.57551	537.716	1299.48	1406.34	-67.5206	19.3253	-0.00442977	3.07462e-06	34.254	29.2463	1	13	0.0101524	7.21902e-06	0.000271877	0.000657036	0.000711065	67.5206
2.41723	705.866	1746.7	1883.94	-67.9957	21.1025	-0.00442915	8.83959e-07	37.6949	32.4032	1	13	0.0101515	5.38845e-06	0.000198879	0.000492137	0.000530803	67.9957
1.63271	920.017	2357.24	2530.41	-68.6796	23.7134	-0.00442836	1.11896e-06	41.3532	35.8866	1	13	0.0101511	4.01165e-06	0.000143685	0.000368146	0.000395192	68.6796
1.10206	1207.15	3201.9	3421.9	-69.343	29.4264	-0.00443434	-1.69915e-06	45.1032	39.4902	1	14	0.0101552	2.96772e-06	0.000103093	0.000273447	0.000292236	69.343
0.745609	1586.75	4354.46	4634.55	-69.9785	35.098	-0.00443391	-9.35809e-07	49.0201	43.274	1	14	0.0101552	2.19119e-06	7.3874e-05	0.00020273	0.000215771	69.9785
0.503902	2102.58	5952.01	6312.47	-70.5439	43.4739	-0.00442995	-2.5934e-06	53.0652	47.1779	1	14	0.0101537	1.60851e-06	5.2766e-05	0.000149371	0.000158417	70.5439
0.340103	2788.76	8135.52	8600.22	-71.0789	55.8673	-0.00442753	-2.15817e-06	57.5208	51.4726	1	14	0.0101518	1.18041e-06	3.77043e-05	0.000109993	0.000116276	71.0789
0.230213	3746.09	11147.9	11760.5	-71.4259	74.1605	-0.00442794	-1.06433e-06	62.0149	55.7228	1	14	0.0101525	8.63273e-07	2.70848e-05	8.06013e-05	8.50303e-05	71.4259
0.155473	5037.53	15294.5	16102.7	-71.7697	101.232	-0.00442994	-2.50425e-06	66.9317	60.3813	1	14	0.0101529	6.30509e-07	1.94276e-05	5.89843e-05	6.21013e-05	71.7697
0.105049	6911.62	21044.1	22150.1	-71.818	141.281	-0.00442512	-2.03164e-06	71.9941	64.9843	1	14	0.0101511	4.58288e-07	1.40873e-05	4.28924e-05	4.51466e-05	71.818
0.0710227	9372.54	28873.7	30356.8	-72.0164	200.502	-0.00442248	7.6252e-06	77.6104	70.2123	1	14	0.0101489	3.3432e-07	1.01705e-05	3.13321e-05	3.29415e-05	72.0164
0.0479883	13758.5	39727.6	42042.6	-70.898	288.133	-0.00441847	-4.22439e-06	83.4818	74.5415	1	14	0.010151	2.41446e-07	7.78379e-06	2.24757e-05	2.37854e-05	70.898
0.0324439	18542.8	53734.4	56843.8	-70.9614	417.733	-0.00442035	-4.9757e-06	91.2924	81.5779	1	14	0.0101541	1.78632e-07	5.73863e-06	1.66298e-05	1.75921e-05	70.9614
0.0219206	27642.7	73123.8	78174.2	-69.2921	609.534	-0.00442071	-4.38047e-06	99.2909	86.876	1	14	0.0101517	1.2986e-07	4.52328e-06	1.19655e-05	1.27919e-05	69.2921
0.0148076	41443.1	97005.1	105487	-66.8666	893.452	-0.0044143	-6.81546e-06	110.8	93.6982	1	14	0.0101517	9.62369e-08	3.72438e-06	8.71759e-06	9.47984e-06	66.8666
0.0100006	57092	131071	142966	-66.463	1313.82	-0.00441516	-7.82675e-06	121.419	102.056	1	14	0.0101502	7.09977e-08	2.79327e-06	6.41275e-06	6.99469e-06	66.463

File: 0708_01_EIS_0.5MTFSI_Blocking_OutsideGB_24hr_C01_C02_C03.mpt
EC-Lab ASCII FILE
Nb header lines : 62

Potentio Electrochemical Impedance Spectroscopy

Run on channel : 3 (SN 35515)
User :
CE vs. WE compliance from -10 V to 10 V
Electrode connection : standard
Ewe ctrl range : min = -5.00 V, max = 5.00 V
Safety Limits :
	Do not start on E overload
Acquisition started on : 07/09/2023 10:52:15
Technique started on : 07/09/2023 10:52:17
Saved on :
	File : 0708_01_EIS_0.5MTFSI_Blocking_OutsideGB_24hr_C01_C02_C03.mpr
	Directory : C:\Users\CESL\Documents\EC-Lab\Data\PhD\Leifer\Results\Zn Ion GPE\2023\0708\
	Host : 10.110.196.171
Device : VSP (SN 1724172417241724)
Address : USB
EC-Lab for windows v11.16 (software)
Internet server v11.16 (firmware)
Command interpretor v11.16 (firmware)
Electrode material : Au/Pd
Initial state :
Electrolyte : NaCl (0.2M)
Comments : Fe(CN)63-/Fe(CN)64- 5.10-3 M
Reference electrode : SCE Saturated Calomel Electrode (0.241 V)
Electrode surface area : 0.001 cm²
Characteristic mass : 0.001 g
Equivalent Weight : 0.000 g/eq.
Density : 0.000 g/cm3
Cycle Definition : Charge/Discharge alternance
Mode                Single sine
E (V)               0.0000
vs.                 Eoc
tE (h:m:s)          0:00:0.0000
record              0
dI                  0.000
unit dI             mA
dt (s)              0.000
fi                  1.000
unit fi             MHz
ff                  10.000
unit ff             mHz
Nd                  6
Points              per decade
spacing             Logarithmic
Va (mV)             10.0
pw                  0.10
Na                  2
corr                1
E range min (V)     -5.000
E range max (V)     5.000
I Range             Auto
Bandwidth           5
nc cycles           0
goto Ns'            0
nr cycles           0
inc. cycle          0

freq/Hz	Re(Z)/Ohm	-Im(Z)/Ohm	|Z|/Ohm	Phase(Z)/deg	time/s	<Ewe>/V	<I>/mA	Cs/µF	Cp/µF	cycle number	I Range	|Ewe|/V	|I|/A	Re(Y)/Ohm-1	Im(Y)/Ohm-1	|Y|/Ohm-1	Phase(Y)/deg
1.00002e+06	-88.3348	36.9245	95.7416	-157.315	2.48808	-0.141291	-0.00145986	0.00431019	0.000641099	1	11	0.000376071	3.92798e-06	-0.00963674	0.00402822	0.0104448	157.315
675752	52.7917	-11.5128	54.0324	12.3024	2.89708	-0.141951	-0.0007578	-0.0204576	-0.000928759	1	11	0.0018317	3.39e-05	0.0180824	-0.00394339	0.0185074	-12.3024
456640	30.6993	-3.98979	30.9575	7.40485	3.60008	-0.141912	0.00361977	-0.0873566	-0.00145099	1	10	0.00996188	0.000321792	0.0320329	-0.00416311	0.0323023	-7.40485
308574	25.4727	-2.01897	25.5526	4.5318	4.14109	-0.142198	0.0037876	-0.255465	-0.00159485	1	10	0.0101106	0.000395679	0.0390127	-0.00309215	0.039135	-4.5318
208525	23.6183	-1.1051	23.6442	2.6789	4.6821	-0.142185	0.0042706	-0.690655	-0.00150874	1	10	0.0101084	0.000427523	0.0422475	-0.00197675	0.0422937	-2.6789
140908	22.8936	-0.495112	22.8989	1.23892	5.22308	-0.142186	0.00448878	-2.28129	-0.00106649	1	10	0.0101362	0.000442652	0.04366	-0.000944221	0.0436702	-1.23892
95214.8	22.6281	-0.0847805	22.6283	0.214669	5.63209	-0.142183	0.00467527	-19.716	-0.000276764	1	10	0.0106794	0.000471948	0.0441922	-0.000165575	0.0441925	-0.214669
64345.7	22.4817	0.263859	22.4832	-0.672427	6.0401	-0.142174	0.00486175	9.37409	0.00129108	1	10	0.0104577	0.000465133	0.0444745	0.00052198	0.0444776	0.672427
43476.5	22.4682	0.608233	22.4764	-1.55067	6.44909	-0.142176	0.00401138	6.0186	0.00440738	1	10	0.0103027	0.000458378	0.0444748	0.00120397	0.0444911	1.55067
29384.8	22.5326	0.983883	22.5541	-2.50022	6.8581	-0.142173	0.00443843	5.50496	0.0104759	1	10	0.0101932	0.000451943	0.0442957	0.00193416	0.0443379	2.50022
19853.5	22.5312	1.46698	22.5789	-3.7252	7.26708	-0.142166	0.00392746	5.4646	0.0230675	1	10	0.0101493	0.000449505	0.0441955	0.00287752	0.0442891	3.7252
13418	22.6872	2.11461	22.7856	-5.32499	7.5441	-0.142178	0.0031461	5.60923	0.0483109	1	10	0.0105947	0.000464976	0.0436981	0.00407297	0.0438875	5.32499
9082.03	22.8578	3.01846	23.0562	-7.52262	7.84133	-0.142174	0.00378201	5.80566	0.0995056	1	10	0.0108154	0.000469087	0.042999	0.0056782	0.0433723	7.52262
6140.96	23.0714	4.32946	23.4741	-10.6282	8.24464	-0.142196	0.00169712	5.98619	0.203628	1	10	0.0109146	0.000464961	0.0418693	0.00785696	0.0426001	10.6282
4141.32	23.425	6.08984	24.2036	-14.5727	8.7107	-0.142161	0.00303048	6.31067	0.399508	1	10	0.0109499	0.000452409	0.0399869	0.0103955	0.0413161	14.5727
2797.31	23.9903	8.62796	25.4947	-19.7808	9.17695	-0.142159	0.00273024	6.59433	0.755246	1	10	0.010963	0.000430013	0.0369095	0.0132742	0.0392239	19.7808
1890.6	24.8878	12.157	27.6983	-26.0342	9.64271	-0.142163	0.00343701	6.92457	1.33395	1	10	0.0109588	0.000395649	0.0324399	0.015846	0.0361033	26.0342
1287.12	26.2042	16.9214	31.1928	-32.8524	10.1092	-0.142158	0.00302488	7.30746	2.15044	1	10	0.0109422	0.000350792	0.0269315	0.0173911	0.0320586	32.8524
863.066	28.2501	23.7577	36.912	-40.0631	11.0502	-0.142176	0.000503299	7.76197	3.21548	1	11	0.01002	0.000271456	0.0207341	0.0174369	0.0270915	40.0631
583.692	31.3244	32.7856	45.3444	-46.3056	11.5162	-0.142188	0.000416031	8.31674	4.34782	1	11	0.00992798	0.000218946	0.0152348	0.0159454	0.0220534	46.3056
394.117	35.8137	45.0711	57.5676	-51.5292	11.9832	-0.142189	0.000547491	8.95976	5.49209	1	11	0.00986024	0.000171281	0.0108067	0.0136001	0.0173709	51.5292
266.449	42.3262	61.2402	74.4438	-55.3497	12.4467	-0.142181	0.000628044	9.75369	6.60063	1	11	0.00981267	0.000131813	0.00763753	0.0110505	0.013433	55.3497
180.058	51.4958	82.7372	97.4539	-58.1018	12.9117	-0.142182	0.000545251	10.6834	7.70036	1	11	0.00979559	0.000100515	0.00542217	0.00871169	0.0102613	58.1018
121.595	64.0882	111.1	128.26	-60.0215	13.3721	-0.14219	0.000416213	11.7812	8.83971	1	11	0.00979063	7.63345e-05	0.00389581	0.00675359	0.00779669	60.0215
82.2368	81.3631	148.014	168.903	-61.2024	13.8273	-0.142189	0.000448099	13.0753	10.0412	1	11	0.00977659	5.7883e-05	0.00285204	0.00518836	0.00592058	61.2024
55.5152	104.366	197.587	223.456	-62.1569	14.5399	-0.142186	-3.78231e-06	14.5094	11.3444	1	12	0.00980313	4.38705e-05	0.00209013	0.00395706	0.00447515	62.1569
37.5601	135.114	261.536	294.376	-62.6784	15.0307	-0.142178	4.5405e-05	16.2017	12.7886	1	12	0.00978801	3.32501e-05	0.00155918	0.00301806	0.00339702	62.6784
25.3653	176.13	346.637	388.818	-63.0644	15.4899	-0.142189	8.54373e-05	18.1011	14.3868	1	12	0.00978699	2.51712e-05	0.00116504	0.00229289	0.0025719	63.0644
17.1327	231.079	461.216	515.866	-63.3881	15.9038	-0.1422	-0.000216718	20.1415	16.1	1	12	0.00977815	1.89548e-05	0.000868334	0.00173313	0.00193849	63.3881
11.5912	304.234	607.958	679.832	-63.4158	16.3133	-0.142199	-4.11495e-05	22.5848	18.0618	1	12	0.00977175	1.43738e-05	0.00065827	0.00131544	0.00147095	63.4158
7.82815	395.076	801.883	893.925	-63.7712	16.8943	-0.142189	-1.27799e-05	25.3542	20.4019	1	12	0.00976948	1.09287e-05	0.0004944	0.00100348	0.00111866	63.7712
5.29302	526.811	1064.68	1187.88	-63.6734	18.1577	-0.142188	2.30743e-05	28.2422	22.6875	1	13	0.0097827	8.23541e-06	0.000373343	0.000754519	0.000841834	63.6734
3.57551	690.447	1407.3	1567.55	-63.8666	19.3733	-0.142185	4.24676e-05	31.6297	25.4933	1	13	0.00977855	6.23812e-06	0.000280989	0.000572723	0.000637939	63.8666
2.41723	905.811	1862.31	2070.92	-64.0621	21.1506	-0.142182	5.0573e-05	35.3549	28.5909	1	13	0.00977439	4.71983e-06	0.000211209	0.000434237	0.000482878	64.0621
1.63271	1196.65	2463.66	2738.9	-64.0932	23.7614	-0.142186	4.90055e-05	39.5668	32.014	1	13	0.0097741	3.56862e-06	0.00015952	0.000328418	0.00036511	64.0932
1.10206	1567.57	3261.98	3619.09	-64.333	29.4744	-0.142184	5.21633e-05	44.2724	35.9665	1	14	0.00977903	2.70207e-06	0.000119682	0.000249048	0.000276312	64.333
0.745609	2055.77	4328.46	4791.84	-64.5949	35.1461	-0.142179	4.98031e-05	49.3146	40.2381	1	14	0.0097803	2.04103e-06	8.95303e-05	0.000188507	0.000208688	64.5949
0.503902	2679.44	5760.69	6353.35	-65.0557	43.5219	-0.142184	4.51494e-05	54.8276	45.0758	1	14	0.00977469	1.53851e-06	6.63802e-05	0.000142715	0.000157397	65.0557
0.340103	3531.76	7702.16	8473.28	-65.3666	55.9154	-0.142174	3.74639e-05	60.7572	50.2018	1	14	0.00977475	1.1536e-06	4.91912e-05	0.000107278	0.000118018	65.3666
0.230213	4577.29	10385.6	11349.6	-66.2153	74.2086	-0.14218	3.81936e-05	66.5669	55.7397	1	14	0.00977759	8.61495e-07	3.55345e-05	8.06258e-05	8.81091e-05	66.2153
0.155473	5986.21	14143.7	15358.4	-67.0599	101.28	-0.142175	4.78611e-05	72.3773	61.3818	1	14	0.00977271	6.36311e-07	2.53782e-05	5.99616e-05	6.51111e-05	67.0599
0.105049	7782.96	19703	21184.5	-68.4453	141.329	-0.142174	3.19749e-05	76.8945	66.5156	1	14	0.00977409	4.61379e-07	1.73423e-05	4.39032e-05	4.72043e-05	68.4453
0.0710227	10444.5	27702	29605.6	-69.342	200.55	-0.142173	2.01662e-05	80.8931	70.8251	1	14	0.00977631	3.30218e-07	1.19163e-05	3.16056e-05	3.37774e-05	69.342
0.0479883	14579.9	39593.3	42192.4	-69.7841	288.181	-0.142164	1.50444e-05	83.7651	73.7627	1	14	0.00977537	2.31685e-07	8.19005e-06	2.22409e-05	2.37009e-05	69.7841
0.0324439	20469.5	57739.7	61260.7	-70.4799	417.78	-0.142167	6.23323e-06	84.9596	75.474	1	14	0.00977552	1.59573e-07	5.45436e-06	1.53855e-05	1.63237e-05	70.4799
0.0219206	29361.6	84222.8	89194	-70.7805	609.581	-0.142174	1.11042e-06	86.2062	76.8645	1	14	0.00977343	1.09575e-07	3.69069e-06	1.05866e-05	1.12115e-05	70.7805
0.0148076	43569.5	121784	129343	-70.3148	893.499	-0.142164	-1.08455e-05	88.256	78.2417	1	14	0.00977546	7.55777e-08	2.60432e-06	7.27953e-06	7.73137e-06	70.3148
0.0100006	64400.2	175223	186683	-69.82	1313.87	-0.142172	-1.48212e-05	90.8242	80.0157	1	14	0.00977633	5.23687e-08	1.8479e-06	5.02785e-06	5.35668e-06	69.82