Folder: PhD_Markup_Experiment/Python Codes/Alyssa_Old_Files/Functions.py/EIS Results/EIS_2023_07_08_Temp_In_Out_GB

Note: README.md
# PhD_Markup_Experiment
This is my trial of notekeeping on Github. Let's see how it works out

## Installation

The repository includes the battery analysis package in
`Python_Codes/BLeifer_Battery_Analysis`. To install the required
dependencies, navigate to that folder and run:

```bash
pip install .
```

Additional optional features are available. Install them by passing one
of the extras:

```bash
pip install ".[biologic_mpr]"  # BioLogic .mpr file support
pip install ".[eis]"          # EIS tools
pip install ".[pybamm]"       # PyBAMM modeling
pip install ".[all]"          # everything
```

### Development setup

Install the dependencies needed for running the tests and style checks:

```bash
pip install -r requirements-dev.txt
```

The package requires a running MongoDB instance for data storage.

## License

This project is licensed under the [MIT License](LICENSE).

## Dashboard

A lightweight Dash application provides a simple interface for monitoring battery tests.
To run the dashboard locally, install `dash` and execute:

```bash
pip install dash dash-bootstrap-components
python -m dashboard.app
```

The app currently uses placeholder data but is structured for MongoDB integration
via the functions in `dashboard/data_access.py`.

File: 0708_01_EIS_0.5MTFSI_Blocking_InsideGB_C01.mpt
EC-Lab ASCII FILE
Nb header lines : 62

Potentio Electrochemical Impedance Spectroscopy

Run on channel : 1 (SN 35512)
User :
CE vs. WE compliance from -10 V to 10 V
Electrode connection : standard
Ewe ctrl range : min = -5.00 V, max = 5.00 V
Safety Limits :
	Do not start on E overload
Acquisition started on : 07/08/2023 16:12:25
Technique started on : 07/08/2023 16:12:27
Saved on :
	File : 0708_01_EIS_0.5MTFSI_Blocking_InsideGB_C01.mpr
	Directory : C:\Users\CESL\Documents\EC-Lab\Data\PhD\Leifer\Results\Zn Ion GPE\2023\0708\
	Host : 10.110.196.171
Device : VSP (SN 1724172417241724)
Address : USB
EC-Lab for windows v11.16 (software)
Internet server v11.16 (firmware)
Command interpretor v11.16 (firmware)
Electrode material : Au/Pd
Initial state :
Electrolyte : NaCl (0.2M)
Comments : Fe(CN)63-/Fe(CN)64- 5.10-3 M
Reference electrode : SCE Saturated Calomel Electrode (0.241 V)
Electrode surface area : 0.001 cm²
Characteristic mass : 0.001 g
Equivalent Weight : 0.000 g/eq.
Density : 0.000 g/cm3
Cycle Definition : Charge/Discharge alternance
Mode                Single sine
E (V)               0.0000
vs.                 Eoc
tE (h:m:s)          0:00:0.0000
record              0
dI                  0.000
unit dI             mA
dt (s)              0.000
fi                  1.000
unit fi             MHz
ff                  10.000
unit ff             mHz
Nd                  6
Points              per decade
spacing             Logarithmic
Va (mV)             10.0
pw                  0.10
Na                  2
corr                1
E range min (V)     -5.000
E range max (V)     5.000
I Range             Auto
Bandwidth           5
nc cycles           0
goto Ns'            0
nr cycles           0
inc. cycle          0

freq/Hz	Re(Z)/Ohm	-Im(Z)/Ohm	|Z|/Ohm	Phase(Z)/deg	time/s	<Ewe>/V	<I>/mA	Cs/µF	Cp/µF	cycle number	I Range	|Ewe|/V	|I|/A	Re(Y)/Ohm-1	Im(Y)/Ohm-1	|Y|/Ohm-1	Phase(Y)/deg
1.00002e+06	-37.8517	22.585	44.0776	-149.177	2.3061	0.371114	0.00551359	0.0070468	0.0018501	1	10	0.00029834	6.76853e-06	-0.0194827	0.0116248	0.0226873	149.177
675752	30.5663	-10.8401	32.4316	19.5267	2.71509	0.370498	0.00692519	-0.0217269	-0.00242734	1	10	0.00159395	4.91481e-05	0.0290607	-0.0103062	0.0308341	-19.5267
456640	16.6637	-3.62266	17.0529	12.2651	3.12408	0.370609	0.0084375	-0.0962095	-0.00434185	1	10	0.00561384	0.0003292	0.0573024	-0.0124574	0.0586409	-12.2651
308574	13.9116	-1.71005	14.0163	7.00778	3.53309	0.370414	0.00864077	-0.301614	-0.00448953	1	10	0.0102972	0.000734656	0.0708124	-0.00870443	0.0713454	-7.00778
208525	12.921	-0.76423	12.9436	3.3849	4.07409	0.370386	0.00830698	-0.998705	-0.0034816	1	10	0.0101391	0.000783334	0.0771238	-0.0045616	0.0772585	-3.3849
140908	12.5438	-0.0928739	12.5441	0.424209	4.61508	0.370399	0.0095004	-12.1616	-0.000666649	1	10	0.0101178	0.000806579	0.0797165	-0.00059022	0.0797186	-0.424209
95214.8	12.38	0.541636	12.3919	-2.50514	5.02409	0.370399	0.00930275	3.08609	0.00589588	1	10	0.0109366	0.000882561	0.0806209	0.00352723	0.0806981	2.50514
64345.7	12.3417	1.2071	12.4006	-5.58613	5.4331	0.37041	0.00906779	2.04907	0.0194159	1	10	0.0106925	0.000862253	0.080258	0.00784976	0.080641	5.58613
43476.5	12.3574	2.01608	12.5207	-9.26606	5.8421	0.370398	0.0102221	1.81576	0.0470775	1	10	0.0104444	0.000834165	0.0788254	0.0128602	0.0798675	9.26606
29384.8	12.4248	3.11778	12.8101	-14.0864	6.25109	0.370393	0.00958245	1.73721	0.102906	1	10	0.0103422	0.000807347	0.0757163	0.0189996	0.0780637	14.0864
19853.5	12.5365	4.6093	13.357	-20.187	6.6601	0.370394	0.0092468	1.73919	0.20711	1	10	0.0101097	0.000756888	0.0702682	0.0258356	0.0748672	20.187
13418	12.735	6.76412	14.4199	-27.9748	6.93709	0.370408	0.0104029	1.75357	0.385852	1	10	0.0107437	0.000745058	0.0612456	0.0325302	0.0693487	27.9748
9082.03	12.9722	9.81993	16.2699	-37.1257	7.23435	0.370411	0.00999082	1.78455	0.650096	1	10	0.0108689	0.000668041	0.0490055	0.0370971	0.0614633	37.1257
6140.96	13.3442	14.2649	19.5334	-46.91	7.63764	0.370412	0.0096272	1.81684	0.96894	1	10	0.010763	0.000551007	0.0349733	0.0373863	0.0511944	46.91
4141.32	13.8938	20.6842	24.9173	-56.1103	8.1037	0.37045	0.0111003	1.85799	1.28031	1	10	0.0106055	0.000425625	0.0223779	0.0333146	0.0401327	56.1103
2797.31	14.7205	30.0126	33.4282	-63.8731	8.56993	0.370447	0.0109791	1.89573	1.52811	1	10	0.0104846	0.000313645	0.0131733	0.0268582	0.0299148	63.8731
1890.6	16.0352	43.6886	46.5384	-69.8452	9.50868	0.370415	0.00118699	1.92687	1.69811	1	11	0.0101273	0.000217613	0.00740374	0.0201719	0.0214876	69.8452
1287.12	17.7728	62.7962	65.2628	-74.1973	9.97521	0.37041	0.000937164	1.9691	1.82307	1	11	0.00977593	0.000149793	0.00417276	0.0147435	0.0153227	74.1973
863.066	20.587	91.3612	93.652	-77.3013	10.4422	0.370416	0.000879555	2.01843	1.9209	1	11	0.00959896	0.000102496	0.00234725	0.0104166	0.0106778	77.3013
583.692	24.3866	132.07	134.303	-79.5382	10.9092	0.370414	0.000907892	2.06458	1.99651	1	11	0.00951862	7.08744e-05	0.00135201	0.00732209	0.00744587	79.5382
394.117	29.9621	191.017	193.352	-81.0854	11.3762	0.370418	0.000955246	2.11409	2.06332	1	11	0.00947962	4.90277e-05	0.000801445	0.00510943	0.00517191	81.0854
266.449	39.3752	277.371	280.152	-81.9204	12.0917	0.370427	0.00010207	2.1535	2.11096	1	12	0.00960615	3.42891e-05	0.000501691	0.00353406	0.00356949	81.9204
180.058	55.932	400.951	404.833	-82.0586	12.5567	0.370424	9.668e-05	2.20454	2.16246	1	12	0.00953154	2.35444e-05	0.000341277	0.00244646	0.00247015	82.0586
121.595	77.8025	578.413	583.622	-82.3391	13.0171	0.370425	0.000118556	2.2629	2.22269	1	12	0.00947672	1.62378e-05	0.000228418	0.00169814	0.00171344	82.3391
82.2368	127.481	839.013	848.643	-81.3605	13.4723	0.370423	8.14803e-06	2.30667	2.25462	1	12	0.00946283	1.11505e-05	0.000177009	0.00116498	0.00117835	81.3605
55.5152	174.018	1181.8	1194.54	-81.6235	13.9339	0.370421	5.03902e-05	2.42585	2.37437	1	12	0.00945606	7.91606e-06	0.000121953	0.00082821	0.000837141	81.6235
37.5601	287.058	1714.68	1738.54	-80.4961	14.4248	0.370422	-1.77757e-05	2.47122	2.40385	1	12	0.00945007	5.43564e-06	9.49734e-05	0.000567301	0.000575196	80.4961
25.3653	448.069	2426.41	2467.44	-79.5375	15.1339	0.370416	2.20667e-05	2.58593	2.50065	1	13	0.00945817	3.8332e-06	7.35957e-05	0.000398541	0.000405279	79.5375
17.1327	718.964	3416.18	3491.02	-78.1151	15.5478	0.370417	2.82917e-05	2.71928	2.60395	1	13	0.00945019	2.707e-06	5.89934e-05	0.000280309	0.000286449	78.1151
11.5912	1144.6	4747.63	4883.66	-76.4453	15.9573	0.370412	1.30275e-05	2.8921	2.73323	1	13	0.00944701	1.93441e-06	4.79915e-05	0.000199061	0.000204765	76.4453
7.82815	1529.39	6563.67	6739.49	-76.8837	16.5383	0.370418	1.39963e-05	3.09752	2.93801	1	13	0.00944941	1.4021e-06	3.36715e-05	0.000144508	0.000148379	76.8837
5.29302	2497.59	8969.41	9310.66	-74.4398	17.8017	0.370421	1.43865e-05	3.35237	3.11114	1	14	0.0094532	1.01531e-06	2.88112e-05	0.000103467	0.000107404	74.4398
3.57551	3379.35	12161.1	12621.9	-74.4703	19.0173	0.370424	1.06825e-05	3.66023	3.39785	1	14	0.00945383	7.49001e-07	2.12121e-05	7.63349e-05	7.92273e-05	74.4703
2.41723	4285.92	16667.9	17210.2	-75.5796	20.7945	0.370425	1.09455e-05	3.9502	3.70522	1	14	0.00944696	5.48918e-07	1.44702e-05	5.62746e-05	5.81052e-05	75.5796
1.63271	5317.43	23187.9	23789.8	-77.0843	23.4054	0.370426	1.16237e-05	4.20388	3.99385	1	14	0.00944596	3.97059e-07	9.39549e-06	4.09713e-05	4.20348e-05	77.0843
1.10206	6414.79	32901.9	33521.4	-78.9676	27.2544	0.370426	1.03904e-05	4.38929	4.22856	1	14	0.00944628	2.81799e-07	5.70873e-06	2.92804e-05	2.98317e-05	78.9676
0.745609	8010.99	46995.6	47673.4	-80.3262	32.9262	0.370429	1.03596e-05	4.54205	4.4138	1	14	0.00944682	1.98157e-07	3.52479e-06	2.06778e-05	2.0976e-05	80.3262
0.503902	10363.2	67807.7	68595.1	-81.3106	41.302	0.370427	9.55571e-06	4.65795	4.55163	1	14	0.00944529	1.37696e-07	2.20246e-06	1.4411e-05	1.45783e-05	81.3106
0.340103	14226.7	97720.5	98750.7	-81.7168	53.6955	0.370427	9.44904e-06	4.78877	4.68938	1	14	0.0094457	9.5652e-08	1.45889e-06	1.00209e-05	1.01265e-05	81.7168
0.230213	20680.1	141172	142679	-81.6661	71.9888	0.370424	8.23369e-06	4.89712	4.79424	1	14	0.00944662	6.62089e-08	1.01585e-06	6.93473e-06	7.00874e-06	81.6661
0.155473	30900.1	203179	205515	-81.3525	99.06	0.370426	7.60285e-06	5.03835	4.92445	1	14	0.00944604	4.59628e-08	7.31601e-07	4.81052e-06	4.86583e-06	81.3525
0.105049	49224	291153	295285	-80.404	139.109	0.370422	6.5279e-06	5.20363	5.05903	1	14	0.00944647	3.19911e-08	5.64539e-07	3.33917e-06	3.38656e-06	80.404
0.0710227	81176.6	418118	425925	-79.0128	198.33	0.370428	5.08729e-06	5.3595	5.16482	1	14	0.00944606	2.21778e-08	4.47471e-07	2.3048e-06	2.34783e-06	79.0128
0.0479883	127018	606464	619623	-78.1709	285.961	0.370424	3.64048e-06	5.46864	5.23884	1	14	0.00944685	1.52461e-08	3.30835e-07	1.57961e-06	1.61388e-06	78.1709
0.0324439	343894	759898	834091	-65.6507	415.561	0.370424	5.83551e-06	6.45553	5.35815	1	14	0.00944494	1.13236e-08	4.94308e-07	1.09227e-06	1.19891e-06	65.6507
0.0219206	310300	1.14238e+06	1.18378e+06	-74.8037	607.362	0.370419	7.89777e-06	6.35559	5.9189	1	14	0.00944442	7.97822e-09	2.21433e-07	8.15216e-07	8.44754e-07	74.8037
0.0148076	469103	1.80641e+06	1.86633e+06	-75.4426	891.28	0.370419	8.01998e-06	5.95001	5.57411	1	14	0.0094453	5.0609e-09	1.34676e-07	5.1861e-07	5.35811e-07	75.4426
0.0100006	840876	1.52036e+06	1.7374e+06	-61.054	1311.65	0.370413	-5.58304e-06	10.4676	8.01563	1	14	0.00944667	5.43724e-09	2.78568e-07	5.03669e-07	5.75571e-07	61.054

File: 0708_01_EIS_0.5MTFSI_Blocking_InsideGB_day_2_40C_C01.mpt
EC-Lab ASCII FILE
Nb header lines : 62

Potentio Electrochemical Impedance Spectroscopy

Run on channel : 1 (SN 35512)
User :
CE vs. WE compliance from -10 V to 10 V
Electrode connection : standard
Ewe ctrl range : min = -5.00 V, max = 5.00 V
Safety Limits :
	Do not start on E overload
Acquisition started on : 07/09/2023 15:25:37
Technique started on : 07/09/2023 15:25:39
Saved on :
	File : 0708_01_EIS_0.5MTFSI_Blocking_InsideGB_day_2_40C_C01.mpr
	Directory : C:\Users\CESL\Documents\EC-Lab\Data\PhD\Leifer\Results\Zn Ion GPE\2023\0708\
	Host : 10.110.196.171
Device : VSP (SN 1724172417241724)
Address : USB
EC-Lab for windows v11.16 (software)
Internet server v11.16 (firmware)
Command interpretor v11.16 (firmware)
Electrode material : Au/Pd
Initial state :
Electrolyte : NaCl (0.2M)
Comments : Fe(CN)63-/Fe(CN)64- 5.10-3 M
Reference electrode : SCE Saturated Calomel Electrode (0.241 V)
Electrode surface area : 0.001 cm²
Characteristic mass : 0.001 g
Equivalent Weight : 0.000 g/eq.
Density : 0.000 g/cm3
Cycle Definition : Charge/Discharge alternance
Mode                Single sine
E (V)               0.0000
vs.                 Eoc
tE (h:m:s)          0:00:0.0000
record              0
dI                  0.000
unit dI             mA
dt (s)              0.000
fi                  1.000
unit fi             MHz
ff                  10.000
unit ff             mHz
Nd                  6
Points              per decade
spacing             Logarithmic
Va (mV)             10.0
pw                  0.10
Na                  2
corr                1
E range min (V)     -5.000
E range max (V)     5.000
I Range             Auto
Bandwidth           5
nc cycles           0
goto Ns'            0
nr cycles           0
inc. cycle          0

freq/Hz	Re(Z)/Ohm	-Im(Z)/Ohm	|Z|/Ohm	Phase(Z)/deg	time/s	<Ewe>/V	<I>/mA	Cs/µF	Cp/µF	cycle number	I Range	|Ewe|/V	|I|/A	Re(Y)/Ohm-1	Im(Y)/Ohm-1	|Y|/Ohm-1	Phase(Y)/deg
1.00002e+06	-18.0091	18.7846	26.0229	-133.792	2.30708	0.050196	0.00360969	0.00847245	0.00441473	1	10	0.000194335	7.46786e-06	-0.0265939	0.0277391	0.0384277	133.792
675752	17.837	-10.0846	20.4904	29.4827	2.71608	0.0496146	0.00449358	-0.0233547	-0.00565703	1	10	0.00103118	5.03249e-05	0.0424834	-0.024019	0.0488033	-29.4827
456640	10.0259	-3.55967	10.639	19.5473	3.1251	0.0497096	0.00399944	-0.097912	-0.010961	1	10	0.00359739	0.000338131	0.0885761	-0.0314488	0.0939934	-19.5473
308574	8.40023	-1.7901	8.58885	12.0299	3.4021	0.0495124	0.00561618	-0.288126	-0.0125161	1	10	0.0094348	0.00109849	0.113873	-0.0242665	0.11643	-12.0299
208525	7.81207	-0.884942	7.86203	6.46285	3.9431	0.0494758	0.00577841	-0.862475	-0.0109271	1	10	0.0100997	0.00128462	0.126385	-0.0143168	0.127194	-6.46285
140908	7.59321	-0.256986	7.59755	1.93839	4.48309	0.0494995	0.00702964	-4.39517	-0.00502858	1	10	0.0101556	0.00133669	0.131546	-0.00445206	0.131621	-1.93839
95214.8	7.50931	0.284374	7.51469	-2.16873	5.0231	0.0494953	0.00765993	5.87794	0.00841751	1	10	0.0100991	0.00134392	0.132977	0.00503579	0.133073	2.16873
64345.7	7.48734	0.860425	7.53661	-6.55553	5.43108	0.0495033	0.00874893	2.87467	0.0374681	1	10	0.0106874	0.00141807	0.131818	0.0151482	0.132686	6.55553
43476.5	7.50686	1.52314	7.65982	-11.4696	5.84008	0.0495157	0.00812238	2.40339	0.0950318	1	10	0.0106258	0.00138721	0.127944	0.02596	0.130551	11.4696
29384.8	7.56859	2.40488	7.94147	-17.6274	6.24909	0.0495085	0.00782216	2.25219	0.206533	1	10	0.0104993	0.00132209	0.120009	0.0381321	0.125921	17.6274
19853.5	7.66777	3.61212	8.47597	-25.2241	6.6581	0.0495134	0.00811305	2.21932	0.403056	1	10	0.010259	0.00121037	0.106731	0.0502786	0.117981	25.2241
13418	7.81	5.29351	9.4349	-34.1289	7.06608	0.0495165	0.00852329	2.24073	0.705347	1	10	0.0102078	0.00108192	0.0877357	0.0594661	0.105989	34.1289
9082.03	8.01008	7.71862	11.1238	-43.9384	7.36334	0.0495201	0.00930834	2.27038	1.09313	1	10	0.0102631	0.00092263	0.064734	0.0623785	0.0898975	43.9384
6140.96	8.35065	11.2071	13.9761	-53.3095	7.76664	0.0495274	0.00956194	2.31254	1.48697	1	10	0.0099795	0.000714038	0.0427509	0.0573745	0.0715505	53.3095
4141.32	8.85354	16.225	18.4834	-61.3799	8.23269	0.0495557	0.013627	2.36863	1.82517	1	10	0.00969311	0.000524424	0.0259152	0.0474922	0.0541027	61.3799
2797.31	9.64422	23.452	25.3576	-67.646	8.69894	0.0495584	0.0130676	2.42604	2.07512	1	10	0.00951434	0.000375207	0.0149986	0.0364723	0.0394359	67.646
1890.6	10.8288	33.9672	35.6516	-72.3176	9.41568	0.0495354	0.000850662	2.47833	2.24969	1	11	0.0102273	0.00028687	0.00851969	0.0267241	0.0280493	72.3176
1287.12	12.4417	48.7	50.2641	-75.6688	9.88219	0.0495347	0.000917963	2.53906	2.3835	1	11	0.00975178	0.000194011	0.00492452	0.0192758	0.0198949	75.6688
863.066	14.9973	70.6189	72.1938	-78.0103	10.3492	0.0495375	0.000758374	2.61129	2.4986	1	11	0.00952388	0.000131921	0.00287748	0.0135494	0.0138516	78.0103
583.692	18.7331	101.6	103.313	-79.5531	10.8162	0.0495351	0.000801439	2.68375	2.59551	1	11	0.00942181	9.11971e-05	0.0017551	0.00951892	0.00967937	79.5531
394.117	24.2909	146.28	148.283	-80.5716	11.2832	0.0495391	0.000781303	2.76065	2.68656	1	11	0.00937783	6.32428e-05	0.00110474	0.00665276	0.00674387	80.5716
266.449	32.7348	209.438	211.981	-81.1166	11.7466	0.0495356	0.000497923	2.852	2.78399	1	11	0.00934669	4.40921e-05	0.000728478	0.00466082	0.00471741	81.1166
180.058	46.6283	302.472	306.045	-81.2364	12.4647	0.0495452	-1.83904e-05	2.92229	2.85445	1	12	0.0094238	3.07922e-05	0.000497827	0.00322934	0.00326749	81.2364
121.595	70.6795	433.99	439.708	-80.75	12.9251	0.0495475	0.000191534	3.01595	2.93802	1	12	0.00937166	2.13134e-05	0.000365565	0.00224466	0.00227424	80.75
82.2368	106.405	616.558	625.672	-80.2084	13.3803	0.0495421	-1.77754e-05	3.13892	3.04813	1	12	0.00934873	1.49419e-05	0.000271811	0.001575	0.00159828	80.2084
55.5152	165.245	883.577	898.896	-79.407	13.8419	0.0495391	3.14046e-05	3.24462	3.13497	1	12	0.00933694	1.03871e-05	0.000204507	0.00109352	0.00111248	79.407
37.5601	247.188	1224.74	1249.44	-78.5894	14.3337	0.0495475	7.81221e-06	3.45978	3.32436	1	12	0.00933008	7.46741e-06	0.000158343	0.000784539	0.000800359	78.5894
25.3653	378.006	1741.6	1782.15	-77.7541	15.0429	0.0495386	-7.68586e-06	3.60274	3.44066	1	13	0.00935299	5.24816e-06	0.000119018	0.000548353	0.000561121	77.7541
17.1327	565.014	2419.55	2484.64	-76.8558	15.4568	0.049537	-3.56849e-07	3.83938	3.64084	1	13	0.00933321	3.75636e-06	9.15231e-05	0.000391928	0.000402472	76.8558
11.5912	832.813	3340.84	3443.07	-76.0024	15.8663	0.0495331	1.32339e-06	4.10994	3.86948	1	13	0.00933045	2.70992e-06	7.02513e-05	0.000281814	0.000290438	76.0024
7.82815	1176.55	4582.88	4731.5	-75.6016	16.4473	0.0495382	8.08735e-06	4.43632	4.162	1	13	0.00933066	1.97203e-06	5.25548e-05	0.000204711	0.00021135	75.6016
5.29302	1556.51	6321.35	6510.16	-76.1672	17.2837	0.049543	4.26682e-06	4.75671	4.4848	1	13	0.00932808	1.43285e-06	3.67255e-05	0.000149151	0.000153606	76.1672
3.57551	1967.27	8801.47	9018.64	-77.4006	19.1064	0.0495416	-1.51109e-06	5.05739	4.81675	1	14	0.0093326	1.03481e-06	2.41869e-05	0.000108211	0.000110881	77.4006
2.41723	2409.1	12352	12584.7	-78.9637	20.8836	0.0495468	1.76404e-06	5.33046	5.13512	1	14	0.00933053	7.41417e-07	1.52114e-05	7.79919e-05	7.94614e-05	78.9637
1.63271	2904.14	17646	17883.4	-80.6542	23.4944	0.049546	1.66814e-06	5.52414	5.37846	1	14	0.00932822	5.21612e-07	9.08064e-06	5.51755e-05	5.59177e-05	80.6542
1.10206	3712.11	25435.9	25705.3	-81.6969	27.3434	0.0495393	1.28143e-06	5.67764	5.55924	1	14	0.00932688	3.62838e-07	5.6179e-06	3.84947e-05	3.89024e-05	81.6969
0.745609	4752.93	36659.3	36966.1	-82.6127	33.0152	0.0495423	1.07236e-06	5.8227	5.72644	1	14	0.00932755	2.52327e-07	3.47819e-06	2.68273e-05	2.70518e-05	82.6127
0.503902	6654.88	52955	53371.5	-82.8372	41.391	0.0495404	1.44484e-06	5.9644	5.87167	1	14	0.00932824	1.74779e-07	2.33626e-06	1.85904e-05	1.87366e-05	82.8372
0.340103	9288.56	76732.2	77292.3	-83.0978	53.7844	0.0495411	9.41187e-07	6.09863	6.01056	1	14	0.00932767	1.2068e-07	1.5548e-06	1.28441e-05	1.29379e-05	83.0978
0.230213	13671.9	110245	111089	-82.9306	72.0777	0.0495319	7.12461e-07	6.27093	6.17595	1	14	0.00932696	8.3959e-08	1.10786e-06	8.93332e-06	9.00175e-06	82.9306
0.155473	20558.3	159226	160547	-82.643	99.149	0.0495381	6.65242e-07	6.42915	6.32373	1	14	0.00932714	5.80959e-08	7.97594e-07	6.17742e-06	6.2287e-06	82.643
0.105049	30834.7	228215	230289	-82.3052	139.198	0.0495335	6.78054e-07	6.63871	6.51969	1	14	0.00932817	4.05064e-08	5.81427e-07	4.30328e-06	4.34238e-06	82.3052
0.0710227	46713.3	325615	328948	-81.8359	198.419	0.0495302	6.91876e-07	6.88207	6.74328	1	14	0.0093256	2.83497e-08	4.31703e-07	3.00918e-06	3.03999e-06	81.8359
0.0479883	74274.4	468476	474328	-80.991	286.05	0.0495367	7.46998e-07	7.07941	6.90582	1	14	0.00932763	1.96649e-08	3.30128e-07	2.08224e-06	2.10825e-06	80.991
0.0324439	116714	669998	680088	-80.1182	415.65	0.0495312	5.87244e-07	7.32172	7.10608	1	14	0.0093268	1.37141e-08	2.52344e-07	1.44858e-06	1.4704e-06	80.1182
0.0219206	189161	947051	965758	-78.7046	607.451	0.0495317	7.04923e-07	7.66645	7.37233	1	14	0.00932665	9.65734e-09	2.02813e-07	1.0154e-06	1.03546e-06	78.7046
0.0148076	328048	1.33067e+06	1.37051e+06	-76.1512	891.369	0.0495295	6.28853e-07	8.07725	7.61447	1	14	0.00932736	6.80574e-09	1.74651e-07	7.08443e-07	7.29653e-07	76.1512
0.0100006	540224	1.84901e+06	1.92631e+06	-73.7133	1311.74	0.0495264	6.11261e-07	8.60703	7.93009	1	14	0.00932698	4.84188e-09	1.45586e-07	4.98294e-07	5.19126e-07	73.7133