Folder: PhD_Markup_Experiment/Python Codes/Alyssa_Old_Files/Functions.py/EIS Results/EIS_2023_07_08_Temp_In_Out_GB (part 11)

File: 0708_01_EIS_0.5MTFSI_SymCell_OutsideGB_sanded_40C_C04.mpt
EC-Lab ASCII FILE
Nb header lines : 62

Potentio Electrochemical Impedance Spectroscopy

Run on channel : 4 (SN 35517)
User :
CE vs. WE compliance from -10 V to 10 V
Electrode connection : standard
Ewe ctrl range : min = -5.00 V, max = 5.00 V
Safety Limits :
	Do not start on E overload
Acquisition started on : 07/09/2023 15:26:11
Technique started on : 07/09/2023 15:26:13
Saved on :
	File : 0708_01_EIS_0.5MTFSI_SymCell_OutsideGB_sanded_40C_C04.mpr
	Directory : C:\Users\CESL\Documents\EC-Lab\Data\PhD\Leifer\Results\Zn Ion GPE\2023\0708\
	Host : 10.110.196.171
Device : VSP (SN 1724172417241724)
Address : USB
EC-Lab for windows v11.16 (software)
Internet server v11.16 (firmware)
Command interpretor v11.16 (firmware)
Electrode material : Au/Pd
Initial state :
Electrolyte : NaCl (0.2M)
Comments : Fe(CN)63-/Fe(CN)64- 5.10-3 M
Reference electrode : SCE Saturated Calomel Electrode (0.241 V)
Electrode surface area : 0.001 cm²
Characteristic mass : 0.001 g
Equivalent Weight : 0.000 g/eq.
Density : 0.000 g/cm3
Cycle Definition : Charge/Discharge alternance
Mode                Single sine
E (V)               0.0000
vs.                 Eoc
tE (h:m:s)          0:00:0.0000
record              0
dI                  0.000
unit dI             mA
dt (s)              0.000
fi                  1.000
unit fi             MHz
ff                  10.000
unit ff             mHz
Nd                  6
Points              per decade
spacing             Logarithmic
Va (mV)             10.0
pw                  0.10
Na                  2
corr                1
E range min (V)     -5.000
E range max (V)     5.000
I Range             Auto
Bandwidth           5
nc cycles           0
goto Ns'            0
nr cycles           0
inc. cycle          0

freq/Hz	Re(Z)/Ohm	-Im(Z)/Ohm	|Z|/Ohm	Phase(Z)/deg	time/s	<Ewe>/V	<I>/mA	Cs/µF	Cp/µF	cycle number	I Range	|Ewe|/V	|I|/A	Re(Y)/Ohm-1	Im(Y)/Ohm-1	|Y|/Ohm-1	Phase(Y)/deg
1.00002e+06	336.465	-9.38164	336.596	1.59716	2.48809	0.00115226	-0.000152288	-0.0169642	-1.31787e-05	1	11	0.00118962	3.53427e-06	0.00296977	-8.28058e-05	0.00297092	-1.59716
675752	88.6973	-2.51368	88.7329	1.62333	2.89709	0.00107563	-4.99775e-05	-0.0936964	-7.51923e-05	1	11	0.00461896	5.20546e-05	0.0112653	-0.000319257	0.0112698	-1.62333
456640	67.2384	0.182492	67.2386	-0.155506	3.30609	0.00128997	0.000253588	1.90986	1.40686e-05	1	11	0.00987965	0.000146934	0.0148724	4.03651e-05	0.0148724	0.155506
308574	61.0017	2.24355	61.0429	-2.1063	3.84708	0.00123666	0.00039062	0.229892	0.000310546	1	11	0.0100847	0.000165207	0.0163708	0.000602095	0.0163819	2.1063
208525	59.0413	4.10865	59.1841	-3.98076	4.2561	0.00126651	0.000447935	0.185764	0.000895261	1	11	0.0109035	0.000184231	0.0168557	0.00117297	0.0168964	3.98076
140908	58.9031	6.13085	59.2213	-5.94216	4.66508	0.00128874	0.000448495	0.184231	0.00197446	1	11	0.0107817	0.000182058	0.0167951	0.0017481	0.0168858	5.94216
95214.8	59.8473	8.15041	60.3998	-7.75522	5.07409	0.00128736	0.000172936	0.205086	0.00373443	1	11	0.0106544	0.000176399	0.0164049	0.00223413	0.0165564	7.75522
64345.7	61.3748	10.4191	62.2529	-9.6348	5.4831	0.00129512	0.00034544	0.237394	0.00664985	1	11	0.0106099	0.000170432	0.0158369	0.00268851	0.0160635	9.6348
43476.5	63.4331	12.9942	64.7504	-11.5768	5.89209	0.00129583	0.000366163	0.281719	0.0113457	1	11	0.0104962	0.000162103	0.0151297	0.00309931	0.0154439	11.5768
29384.8	65.7957	16.0825	67.7328	-13.7355	6.30109	0.00130733	0.000405554	0.336779	0.0189869	1	11	0.0103968	0.000153497	0.0143417	0.00350555	0.0147639	13.7355
19853.5	68.6452	19.9835	71.4948	-16.231	6.71008	0.00131667	0.000488072	0.401154	0.0313405	1	11	0.0102981	0.00014404	0.0134296	0.00390952	0.013987	16.231
13418	71.6079	25.2359	75.9246	-19.4134	7.11909	0.00130638	0.000343385	0.470018	0.0519263	1	11	0.0102644	0.000135192	0.0124221	0.00437778	0.013171	19.4134
9082.03	75.0246	32.473	81.7508	-23.4045	7.41635	0.00130437	0.000339651	0.539653	0.0851483	1	11	0.0108189	0.00013234	0.0112259	0.00485891	0.0122323	23.4045
6140.96	79.0334	42.6919	89.8269	-28.3768	7.81965	0.00130877	0.000333303	0.60707	0.137125	1	11	0.010967	0.00012209	0.00979485	0.00529093	0.0111325	28.3768
4141.32	84.0922	57.1096	101.651	-34.1817	8.28566	0.00134569	0.000701835	0.672932	0.212404	1	11	0.0109339	0.000107562	0.00813821	0.00552691	0.00983754	34.1817
2797.31	90.4811	77.2266	118.957	-40.4811	8.75196	0.00134731	0.000749628	0.736736	0.310503	1	11	0.0108388	9.11151e-05	0.00639407	0.00545741	0.0084064	40.4811
1890.6	99.0174	105.648	144.796	-46.8557	9.21667	0.00134476	0.000826918	0.796813	0.424196	1	11	0.0107521	7.4257e-05	0.00472275	0.00503903	0.00690625	46.8557
1287.12	110.142	144.293	181.526	-52.6446	9.68318	0.00133899	0.00072349	0.856955	0.541463	1	11	0.0106805	5.88373e-05	0.00334254	0.00437891	0.00550885	52.6446
863.066	126.478	199.993	236.63	-57.6902	10.1502	0.00134477	0.000718449	0.922064	0.658643	1	11	0.0106389	4.49601e-05	0.00225878	0.00357169	0.004226	57.6902
583.692	148.608	276.129	313.578	-61.7117	10.8692	0.00132189	-3.13616e-05	0.987471	0.765695	1	12	0.010893	3.47379e-05	0.00151129	0.00280815	0.003189	61.7117
394.117	182.55	380.706	422.21	-64.3822	11.3362	0.00132395	2.48208e-05	1.06073	0.862437	1	12	0.0107415	2.54412e-05	0.00102406	0.00213566	0.00236849	64.3822
266.449	230.948	529.278	577.471	-66.4262	11.7997	0.001326	-3.74469e-05	1.12855	0.948046	1	12	0.0106542	1.84497e-05	0.000692554	0.00158717	0.00173169	66.4262
180.058	302.344	723.975	784.571	-67.3338	12.2647	0.00132555	-6.85436e-05	1.22091	1.0396	1	12	0.01061	1.35234e-05	0.000491176	0.00117614	0.00127458	67.3338
121.595	405.403	988.193	1068.12	-67.6943	12.7251	0.00131514	9.98143e-06	1.32453	1.13372	1	12	0.0105993	9.92333e-06	0.000355343	0.00086617	0.000936226	67.6943
82.2368	580.326	1366.09	1484.24	-66.9838	13.1803	0.0013232	-0.000161273	1.41669	1.20012	1	12	0.0105881	7.13364e-06	0.000263428	0.00062011	0.000673744	66.9838
55.5152	849.512	1844.43	2030.66	-65.27	13.8929	0.00132257	-4.93634e-05	1.55434	1.28232	1	13	0.0106269	5.23323e-06	0.000206012	0.000447287	0.00049245	65.27
37.5601	1271.69	2433.48	2745.73	-62.4093	14.3837	0.00133126	-5.32442e-05	1.74127	1.36775	1	13	0.0105974	3.85958e-06	0.000168681	0.000322785	0.000364202	62.4093
25.3653	1928.58	3138.52	3683.71	-58.4298	14.8429	0.0013232	-4.87307e-05	1.9992	1.45122	1	13	0.0105811	2.87241e-06	0.000142124	0.000231288	0.000271465	58.4298
17.1327	2882.53	3854.99	4813.52	-53.213	15.2568	0.00132111	-5.64884e-05	2.40975	1.54559	1	13	0.0105843	2.19888e-06	0.000124408	0.000166379	0.000207748	53.213
11.5912	4194.15	4387.24	6069.49	-46.289	15.6663	0.00132035	-5.02725e-05	3.12967	1.63522	1	13	0.010575	1.74232e-06	0.000113851	0.000119093	0.000164758	46.289
7.82815	5756.86	4683.59	7421.42	-39.1307	16.2483	0.00132989	-4.40511e-05	4.34092	1.72888	1	13	0.0105733	1.42469e-06	0.000104523	8.50364e-05	0.000134745	39.1307
5.29302	7427.57	4590.75	8731.76	-31.7189	17.0847	0.00132681	-4.71185e-05	6.54988	1.81049	1	13	0.0105746	1.21104e-06	9.74188e-05	6.02115e-05	0.000114524	31.7189
3.57551	8831.41	4001.28	9695.56	-24.374	18.9084	0.00133387	-4.73019e-05	11.1246	1.89467	1	14	0.0105832	1.09155e-06	9.39472e-05	4.2565e-05	0.00010314	24.374
2.41723	9905.89	3224.83	10417.6	-18.0325	20.6855	0.00133287	-4.62329e-05	20.4172	1.95647	1	14	0.0105805	1.01564e-06	9.12765e-05	2.97147e-05	9.59915e-05	18.0325
1.63271	10617.8	2406.67	10887.2	-12.771	23.2962	0.00133169	-4.80151e-05	40.5038	1.97924	1	14	0.0105795	9.71744e-07	8.95791e-05	2.03043e-05	9.18513e-05	12.771
1.10206	11037.7	1675.71	11164.1	-8.63256	27.1456	0.00132905	-4.86204e-05	86.1821	1.94161	1	14	0.0105813	9.47794e-07	8.85577e-05	1.34446e-05	8.95725e-05	8.63256
0.745609	11232.5	1066.7	11283	-5.42483	32.818	0.00133148	-4.97323e-05	200.11	1.78853	1	14	0.0105801	9.37701e-07	8.82316e-05	8.37893e-06	8.86286e-05	5.42483
0.503902	11297.6	621.796	11314.7	-3.15026	41.1937	0.00133217	-5.18036e-05	507.956	1.53404	1	14	0.0105793	9.35009e-07	8.8247e-05	4.85693e-06	8.83806e-05	3.15026
0.340103	11293.9	314.502	11298.3	-1.5951	53.5871	0.00133041	-5.55995e-05	1487.94	1.15294	1	14	0.0105798	9.3641e-07	8.84746e-05	2.46375e-06	8.85089e-05	1.5951
0.230213	11280.3	123.096	11281	-0.62521	71.8804	0.00132918	-6.01711e-05	5616.28	0.66871	1	14	0.010579	9.37769e-07	8.86393e-05	9.67268e-07	8.86446e-05	0.62521
0.155473	11290	-2.52553	11290	0.0128168	98.9516	0.00132875	-6.63979e-05	-405335	-0.020283	1	14	0.010579	9.37023e-07	8.85741e-05	-1.98137e-08	8.85741e-05	-0.0128168
0.105049	11376.9	-92.7156	11377.3	0.46692	139.001	0.0013292	-7.61857e-05	-16340.9	-1.08519	1	14	0.0105783	9.29774e-07	8.78917e-05	-7.16271e-07	8.78946e-05	-0.46692
0.0710227	11541.9	-143.037	11542.7	0.710025	198.222	0.00132966	-9.12125e-05	-15666.6	-2.40577	1	14	0.0105784	9.16451e-07	8.66279e-05	-1.07357e-06	8.66346e-05	-0.710025
0.0479883	11800.2	-208.117	11802.1	1.0104	285.852	0.00132613	-0.000112837	-15935.9	-4.95538	1	14	0.0105793	8.96397e-07	8.47178e-05	-1.49414e-06	8.4731e-05	-1.0104
0.0324439	12193.2	-289.561	12196.7	1.36038	415.452	0.00132965	-0.000142404	-16941.3	-9.54867	1	14	0.0105795	8.67406e-07	8.19664e-05	-1.94651e-06	8.19895e-05	-1.36038
0.0219206	12807.2	-472.055	12815.9	2.11089	607.252	0.00133143	-0.000187358	-15380.7	-20.8672	1	14	0.0105785	8.25424e-07	7.79754e-05	-2.87407e-06	7.80283e-05	-2.11089
0.0148076	13956.6	-738.807	13976.1	3.03019	891.17	0.00133082	-0.000251481	-14548	-40.653	1	14	0.010579	7.56933e-07	7.14506e-05	-3.78232e-06	7.15506e-05	-3.03019
0.0100006	15587.9	-886.243	15613.1	3.25402	1311.54	0.00132908	-0.000316778	-17957.2	-57.8587	1	14	0.0105791	6.77578e-07	6.39456e-05	-3.6356e-06	6.40489e-05	-3.25402

File: 0708_01_EIS_0.5MTFSI_SymCell_OutsideGB_sanded_60C_C04.mpt
EC-Lab ASCII FILE
Nb header lines : 62

Potentio Electrochemical Impedance Spectroscopy

Run on channel : 4 (SN 35517)
User :
CE vs. WE compliance from -10 V to 10 V
Electrode connection : standard
Ewe ctrl range : min = -5.00 V, max = 5.00 V
Safety Limits :
	Do not start on E overload
Acquisition started on : 07/09/2023 15:56:09
Technique started on : 07/09/2023 15:56:11
Saved on :
	File : 0708_01_EIS_0.5MTFSI_SymCell_OutsideGB_sanded_60C_C04.mpr
	Directory : C:\Users\CESL\Documents\EC-Lab\Data\PhD\Leifer\Results\Zn Ion GPE\2023\0708\
	Host : 10.110.196.171
Device : VSP (SN 1724172417241724)
Address : USB
EC-Lab for windows v11.16 (software)
Internet server v11.16 (firmware)
Command interpretor v11.16 (firmware)
Electrode material : Au/Pd
Initial state :
Electrolyte : NaCl (0.2M)
Comments : Fe(CN)63-/Fe(CN)64- 5.10-3 M
Reference electrode : SCE Saturated Calomel Electrode (0.241 V)
Electrode surface area : 0.001 cm²
Characteristic mass : 0.001 g
Equivalent Weight : 0.000 g/eq.
Density : 0.000 g/cm3
Cycle Definition : Charge/Discharge alternance
Mode                Single sine
E (V)               0.0000
vs.                 Eoc
tE (h:m:s)          0:00:0.0000
record              0
dI                  0.000
unit dI             mA
dt (s)              0.000
fi                  1.000
unit fi             MHz
ff                  10.000
unit ff             mHz
Nd                  6
Points              per decade
spacing             Logarithmic
Va (mV)             10.0
pw                  0.10
Na                  2
corr                1
E range min (V)     -5.000
E range max (V)     5.000
I Range             Auto
Bandwidth           5
nc cycles           0
goto Ns'            0
nr cycles           0
inc. cycle          0

freq/Hz	Re(Z)/Ohm	-Im(Z)/Ohm	|Z|/Ohm	Phase(Z)/deg	time/s	<Ewe>/V	<I>/mA	Cs/µF	Cp/µF	cycle number	I Range	|Ewe|/V	|I|/A	Re(Y)/Ohm-1	Im(Y)/Ohm-1	|Y|/Ohm-1	Phase(Y)/deg
1.00002e+06	217.129	-33.6488	219.72	8.80915	2.58309	0.0039575	-0.000458651	-0.0047298	-0.000110928	1	11	0.000830529	3.77993e-06	0.00449755	-0.000696993	0.00455124	-8.80915
675752	58.1297	-3.29063	58.2227	3.23997	2.99209	0.00388302	-0.000249365	-0.0715737	-0.000228627	1	11	0.00326616	5.60977e-05	0.017148	-0.00097072	0.0171754	-3.23997
456640	44.6774	-0.349395	44.6788	0.448066	3.26809	0.00412676	-0.000152095	-0.997537	-6.10042e-05	1	11	0.00904081	0.000202351	0.0223813	-0.000175031	0.022382	-0.448066
308574	40.8857	1.5998	40.917	-2.24075	3.67709	0.00401795	-5.54076e-06	0.3224	0.000492853	1	11	0.0107253	0.000262124	0.024421	0.000955558	0.0244397	2.24075
208525	39.8802	3.26558	40.0137	-4.6812	4.21809	0.00405664	-0.000133239	0.233723	0.00155669	1	11	0.0100977	0.000252356	0.0249081	0.00203959	0.0249914	4.6812
140908	40.0939	4.90922	40.3933	-6.98072	4.62708	0.00408775	0.000125331	0.230076	0.00339842	1	11	0.0107143	0.000265248	0.0245731	0.0030088	0.0247566	6.98072
95214.8	40.9127	6.4978	41.4255	-9.02441	5.0361	0.00409976	0.000155762	0.257246	0.00632917	1	11	0.0106818	0.000257857	0.0238409	0.00378644	0.0241397	9.02441
64345.7	42.1964	8.23582	42.9926	-11.0441	5.44508	0.00411176	0.000216436	0.300326	0.011021	1	11	0.0106094	0.000246773	0.022829	0.00445574	0.0232598	11.0441
43476.5	43.7254	10.2143	44.9026	-13.1486	5.85409	0.00411389	0.000122157	0.358389	0.0185453	1	11	0.0106165	0.000236435	0.0216866	0.00506603	0.0222704	13.1486
29384.8	45.3877	12.7542	47.1457	-15.6956	6.26309	0.00411656	0.00021681	0.424663	0.031079	1	11	0.0105014	0.000222744	0.0204199	0.00573811	0.0212108	15.6956
19853.5	47.4474	16.1225	50.1118	-18.7677	6.67209	0.00411546	0.000204862	0.497221	0.051468	1	11	0.0104164	0.000207864	0.0188944	0.00642028	0.0199554	18.7677
13418	49.5355	20.6497	53.6673	-22.6296	7.0811	0.00410774	0.000157628	0.574408	0.0850408	1	11	0.0103128	0.000192162	0.0171988	0.00716958	0.0186333	22.6296
9082.03	52.0436	27.0867	58.6705	-27.4953	7.51834	0.00410837	0.000233238	0.646965	0.137897	1	11	0.0100378	0.000171088	0.0151192	0.00786895	0.0170443	27.4953
6140.96	55.1283	36.2753	65.9926	-33.3455	7.92165	0.00411288	0.000232863	0.714453	0.215876	1	11	0.0102207	0.000154876	0.0126585	0.00832951	0.0151532	33.3455
4141.32	59.0409	49.2889	76.9105	-39.856	8.38768	0.00414654	0.000720317	0.779707	0.320227	1	11	0.0101153	0.00013152	0.00998117	0.00833254	0.0130021	39.856
2797.31	64.2204	67.45	93.133	-46.4051	8.85393	0.0041507	0.000814224	0.843523	0.442439	1	11	0.00994801	0.000106815	0.00740399	0.00777633	0.0107373	46.4051
1890.6	71.4504	92.7269	117.062	-52.3841	9.31868	0.00414652	0.000831212	0.907849	0.569634	1	11	0.00980984	8.38006e-05	0.00521405	0.00676669	0.00854251	52.3841
1287.12	81.1117	126.984	150.679	-57.4314	9.7852	0.00415135	0.000799287	0.973763	0.691589	1	11	0.00971205	6.44554e-05	0.00357257	0.00559301	0.00663664	57.4314
863.066	94.8206	177.119	200.904	-61.8377	10.2522	0.00414382	0.000791632	1.04114	0.809221	1	11	0.00965141	4.804e-05	0.00234924	0.00438825	0.00497751	61.8377
583.692	114.191	244.624	269.964	-64.9768	10.7192	0.00414166	0.000752986	1.11465	0.915216	1	11	0.00962415	3.56498e-05	0.00156682	0.00335651	0.0037042	64.9768
394.117	144.339	341.749	370.98	-67.103	11.4382	0.00413519	7.35003e-06	1.18165	1.00277	1	12	0.00976137	2.63124e-05	0.00104878	0.00248317	0.00269556	67.103
266.449	185.731	471.533	506.793	-68.5012	11.9016	0.00413677	-8.92059e-05	1.26676	1.09662	1	12	0.0096824	1.91053e-05	0.00072314	0.00183591	0.00197319	68.5012
180.058	252.595	654.126	701.203	-68.8856	12.3667	0.00412842	-3.33967e-05	1.35129	1.17593	1	12	0.00963292	1.37377e-05	0.000513734	0.00133038	0.00142612	68.8856
121.595	347.918	889.752	955.356	-68.6431	12.8261	0.00413067	-1.67847e-05	1.47107	1.27597	1	12	0.00961251	1.00617e-05	0.000381194	0.000974851	0.00104673	68.6431
82.2368	547.465	1206.82	1325.19	-65.599	13.2803	0.00413052	-5.74379e-05	1.60365	1.32996	1	12	0.00959809	7.24279e-06	0.000311744	0.000687203	0.000754607	65.599
55.5152	781.337	1640.32	1816.9	-64.53	13.7429	0.00413192	-5.58887e-05	1.74776	1.42454	1	12	0.00959519	5.28108e-06	0.000236688	0.000496896	0.000550388	64.53
37.5601	1191.78	2123.17	2434.79	-60.6935	14.4998	0.00413957	-3.99276e-05	1.99576	1.51759	1	13	0.00961136	3.94752e-06	0.000201037	0.000358148	0.000410714	60.6935
25.3653	1816.33	2659.82	3220.83	-55.6718	14.9589	0.0041342	-3.57706e-05	2.359	1.60879	1	13	0.00960577	2.98239e-06	0.00017509	0.0002564	0.000310479	55.6718
17.1327	2682.97	3149.38	4137.26	-49.5721	15.3729	0.00412857	-3.85893e-05	2.94965	1.7092	1	13	0.00960306	2.32112e-06	0.000156744	0.000183992	0.000241706	49.5721
11.5912	3777.45	3446.09	5113.19	-42.3736	15.7823	0.00411727	-4.12698e-05	3.9844	1.80981	1	13	0.00959344	1.87622e-06	0.000144483	0.000131808	0.000195573	42.3736
7.82815	4969.05	3476.54	6064.47	-34.9782	16.3643	0.00412957	-4.9301e-05	5.84808	1.92186	1	13	0.00959421	1.58204e-06	0.00013511	9.45283e-05	0.000164895	34.9782
5.29302	6113.84	3204.99	6902.97	-27.6644	17.2007	0.0041377	-4.05411e-05	9.38188	2.02242	1	13	0.00959449	1.38991e-06	0.000128305	6.72597e-05	0.000144865	27.6644
3.57551	7025.57	2720.8	7534.02	-21.1699	19.0243	0.0041384	-3.41266e-05	16.3601	2.13366	1	14	0.00959967	1.27418e-06	0.000123774	4.7934e-05	0.000132731	21.1699
2.41723	7665.34	2151.91	7961.67	-15.6811	20.8015	0.00413568	-3.17285e-05	30.597	2.2352	1	14	0.00959811	1.20554e-06	0.000120927	3.39481e-05	0.000125602	15.6811
1.63271	8067.46	1605.18	8225.6	-11.2532	23.4124	0.00413544	-3.13638e-05	60.728	2.3126	1	14	0.00959597	1.1666e-06	0.000119234	2.3724e-05	0.000121572	11.2532
1.10206	8282	1149.38	8361.37	-7.90109	27.2614	0.00413175	-3.15571e-05	125.647	2.37424	1	14	0.00959682	1.14776e-06	0.000118462	1.64403e-05	0.000119598	7.90109
0.745609	8370.31	796.875	8408.16	-5.43831	32.9331	0.0041358	-2.89372e-05	267.867	2.40601	1	14	0.00959598	1.14127e-06	0.000118397	1.12717e-05	0.000118932	5.43831
0.503902	8368.06	541.946	8385.59	-3.70551	41.3089	0.00413778	-2.66065e-05	582.798	2.43423	1	14	0.00959453	1.14417e-06	0.000119003	7.70706e-06	0.000119252	3.70551
0.340103	8319.35	352.985	8326.84	-2.42957	53.7023	0.00413876	-2.3878e-05	1325.72	2.38236	1	14	0.00959671	1.1525e-06	0.000119986	5.09092e-06	0.000120094	2.42957
0.230213	8236.34	224.056	8239.39	-1.55825	71.9956	0.00413671	-2.21771e-05	3085.57	2.28169	1	14	0.00959785	1.16487e-06	0.000121323	3.3004e-06	0.000121368	1.55825
0.155473	8154.69	118.833	8155.56	-0.834875	99.0668	0.00413768	-1.52129e-05	8614.48	1.82892	1	14	0.00959652	1.17668e-06	0.000122603	1.78661e-06	0.000122616	0.834875
0.105049	8079.67	40.4769	8079.77	-0.287034	139.116	0.00413685	1.06034e-05	37430.1	0.939371	1	14	0.00959614	1.18767e-06	0.000123764	6.20025e-07	0.000123766	0.287034
0.0710227	8010.29	-73.5779	8010.63	0.526271	198.337	0.00413705	1.19297e-05	-30456.2	-2.56943	1	14	0.00959692	1.19802e-06	0.000124829	-1.14661e-06	0.000124834	-0.526271
0.0479883	8121.33	-212.789	8124.12	1.50088	285.967	0.00413525	8.07217e-06	-15586	-10.6926	1	14	0.00959591	1.18116e-06	0.000123048	-3.22402e-06	0.00012309	-1.50088
0.0324439	8444.74	-494.653	8459.22	3.35229	415.567	0.00413906	0.000111737	-9917.12	-33.91	1	14	0.00959527	1.1343e-06	0.000118012	-6.91259e-06	0.000118214	-3.35229
0.0219206	9050.48	-725.816	9079.54	4.5851	607.368	0.00413759	0.000307307	-10003.3	-63.9244	1	14	0.00959526	1.0568e-06	0.000109785	-8.80438e-06	0.000110138	-4.5851
0.0148076	9605.17	-968.361	9653.86	5.75692	891.285	0.00413853	0.000380901	-11099.4	-111.679	1	14	0.00959632	9.9404e-07	0.000103063	-1.03905e-05	0.000103586	-5.75692
0.0100006	11122.9	-1077.33	11175	5.53222	1311.66	0.00413131	0.000227025	-14772.2	-137.293	1	14	0.00959556	8.58665e-07	8.90689e-05	-8.62691e-06	8.94857e-05	-5.53222