Folder: PhD_Markup_Experiment/Python Codes/Alyssa_Old_Files/Functions.py/EIS Results/EIS_2023_07_08_Temp_In_Out_GB (part 10)

File: 0708_01_EIS_0.5MTFSI_Blocking_OutsideGB_Day_2_C01_C02.mpt
EC-Lab ASCII FILE
Nb header lines : 62

Potentio Electrochemical Impedance Spectroscopy

Run on channel : 2 (SN 35514)
User :
CE vs. WE compliance from -10 V to 10 V
Electrode connection : standard
Ewe ctrl range : min = -5.00 V, max = 5.00 V
Safety Limits :
	Do not start on E overload
Acquisition started on : 07/09/2023 10:44:58
Technique started on : 07/09/2023 10:44:59
Saved on :
	File : 0708_01_EIS_0.5MTFSI_Blocking_OutsideGB_Day_2_C01_C02.mpr
	Directory : C:\Users\CESL\Documents\EC-Lab\Data\PhD\Leifer\Results\Zn Ion GPE\2023\0708\
	Host : 10.110.196.171
Device : VSP (SN 1724172417241724)
Address : USB
EC-Lab for windows v11.16 (software)
Internet server v11.16 (firmware)
Command interpretor v11.16 (firmware)
Electrode material : Au/Pd
Initial state :
Electrolyte : NaCl (0.2M)
Comments : Fe(CN)63-/Fe(CN)64- 5.10-3 M
Reference electrode : SCE Saturated Calomel Electrode (0.241 V)
Electrode surface area : 0.001 cm²
Characteristic mass : 0.001 g
Equivalent Weight : 0.000 g/eq.
Density : 0.000 g/cm3
Cycle Definition : Charge/Discharge alternance
Mode                Single sine
E (V)               0.0000
vs.                 Eoc
tE (h:m:s)          0:00:0.0000
record              0
dI                  0.000
unit dI             mA
dt (s)              0.000
fi                  1.000
unit fi             MHz
ff                  10.000
unit ff             mHz
Nd                  6
Points              per decade
spacing             Logarithmic
Va (mV)             10.0
pw                  0.10
Na                  2
corr                1
E range min (V)     -5.000
E range max (V)     5.000
I Range             Auto
Bandwidth           5
nc cycles           0
goto Ns'            0
nr cycles           0
inc. cycle          0

freq/Hz	Re(Z)/Ohm	-Im(Z)/Ohm	|Z|/Ohm	Phase(Z)/deg	time/s	<Ewe>/V	<I>/mA	Cs/µF	Cp/µF	cycle number	I Range	|Ewe|/V	|I|/A	Re(Y)/Ohm-1	Im(Y)/Ohm-1	|Y|/Ohm-1	Phase(Y)/deg
1.00002e+06	-0.0428787	3.73138	3.73163	-90.6584	1.97408	-0.00907505	0.0328662	0.0426523	0.0426466	1	9	0.000123161	3.30047e-05	-0.00307925	0.267962	0.26798	90.6584
675752	21.5867	-9.68846	23.6612	24.1714	2.67608	-0.00987399	-0.00453973	-0.0243096	-0.00407583	1	10	0.000707077	2.98834e-05	0.0385579	-0.0173055	0.0422634	-24.1714
456640	8.39703	-2.48783	8.75782	16.5032	3.08509	-0.00989588	-0.00464227	-0.140096	-0.0113051	1	10	0.00266682	0.000304507	0.10948	-0.0324361	0.114184	-16.5032
308574	6.64319	-1.09968	6.73359	9.39926	3.49409	-0.0101405	-0.00678455	-0.469021	-0.0125094	1	10	0.00729683	0.00108365	0.146515	-0.0242535	0.148509	-9.39926
208525	6.05982	-0.41943	6.07432	3.95941	3.9031	-0.0101935	-0.0038144	-1.81971	-0.00867614	1	10	0.0106801	0.00175824	0.164235	-0.0113675	0.164628	-3.95941
140908	5.85339	0.0791886	5.85393	-0.775088	4.44408	-0.0101375	-0.000596294	14.2633	0.00261007	1	10	0.010166	0.00173661	0.17081	0.00231083	0.170825	0.775088
95214.8	5.79756	0.540002	5.82265	-5.32135	4.98508	-0.0101253	3.76282e-05	3.09542	0.0266238	1	10	0.0101162	0.00173739	0.171003	0.0159277	0.171743	5.32135
64345.7	5.83116	1.04624	5.92427	-10.1719	5.39408	-0.0101176	-0.000195427	2.36411	0.0737332	1	10	0.0107594	0.00181616	0.166144	0.02981	0.168797	10.1719
43476.5	5.92775	1.65489	6.15442	-15.5985	5.8031	-0.0101178	-0.00120412	2.21205	0.159941	1	10	0.0107108	0.00174034	0.1565	0.0436913	0.162485	15.5985
29384.8	6.0855	2.4222	6.54983	-21.7039	6.21209	-0.0101131	-4.25475e-05	2.23609	0.305807	1	10	0.0105855	0.00161615	0.141852	0.056461	0.152676	21.7039
19853.5	6.29351	3.44494	7.17467	-28.6954	6.6201	-0.0101108	0.000494413	2.32702	0.536489	1	10	0.0104058	0.00145035	0.122261	0.0669234	0.139379	28.6954
13418	6.53339	4.85779	8.14146	-36.632	7.02909	-0.0101124	-0.000917005	2.44171	0.869296	1	10	0.0101004	0.00124061	0.0985676	0.0732882	0.122828	36.632
9082.03	6.8007	6.858	9.65824	-45.2404	7.32635	-0.0100896	0.00289774	2.55529	1.28836	1	10	0.0100537	0.00104095	0.072905	0.0735193	0.103539	45.2404
6140.96	7.11825	9.78246	12.0982	-53.9584	7.72965	-0.0100947	0.00270382	2.64933	1.73218	1	10	0.00969754	0.00080157	0.0486332	0.0668356	0.082657	53.9584
4141.32	7.5325	14.0851	15.9728	-61.8629	8.19571	-0.0100587	0.00628737	2.72847	2.12168	1	10	0.00938809	0.000587756	0.0295242	0.0552077	0.0626065	61.8629
2797.31	8.06239	20.2877	21.831	-68.327	8.66195	-0.0100597	0.00663975	2.80444	2.42194	1	10	0.00917935	0.000420473	0.0169167	0.0425682	0.0458064	68.327
1890.6	8.89059	29.3517	30.6687	-73.1485	9.12668	-0.0100625	0.00650178	2.86804	2.62702	1	10	0.00907911	0.000296039	0.00945237	0.0312064	0.0326066	73.1485
1287.12	10.0257	42.1801	43.3552	-76.6296	9.8452	-0.0100802	7.68714e-05	2.93153	2.77477	1	11	0.00943777	0.000217685	0.00533375	0.0224401	0.0230653	76.6296
863.066	11.854	61.533	62.6644	-79.0958	10.3122	-0.0100927	0.000122747	2.99687	2.88963	1	11	0.00919117	0.000146673	0.00301872	0.0156699	0.015958	79.0958
583.692	14.4307	88.8931	90.0568	-80.7792	10.7792	-0.0100824	7.6868e-05	3.06738	2.98862	1	11	0.00907435	0.000100763	0.00177932	0.0109606	0.0111041	80.7792
394.117	18.1639	128.666	129.942	-81.9646	11.2462	-0.0100867	5.8404e-05	3.13856	3.07724	1	11	0.00902146	6.94269e-05	0.00107575	0.00762019	0.00769575	81.9646
266.449	24.082	186.076	187.628	-82.6257	11.7097	-0.0100886	-2.94358e-05	3.21008	3.1572	1	11	0.00899851	4.79594e-05	0.00068407	0.00528563	0.00532971	82.6257
180.058	32.8851	269.236	271.237	-83.0362	12.6477	-0.0100759	-0.000107054	3.28304	3.23478	1	12	0.0100848	3.71808e-05	0.000446996	0.00365962	0.00368682	83.0362
121.595	45.6098	388.899	391.564	-83.3109	13.1081	-0.0100813	-9.52519e-05	3.36563	3.31997	1	12	0.0100248	2.56019e-05	0.000297476	0.00253648	0.00255386	83.3109
82.2368	63.8575	566.852	570.437	-83.5726	13.5633	-0.0100789	-0.000125608	3.41417	3.37138	1	12	0.00999535	1.75223e-05	0.000196244	0.00174202	0.00175304	83.5726
55.5152	99.5095	809.55	815.643	-82.9924	14.0249	-0.0100788	-6.5139e-05	3.54132	3.48861	1	12	0.00997831	1.22337e-05	0.000149577	0.00121687	0.00122603	82.9924
37.5601	156.019	1169.91	1180.26	-82.4038	14.5168	-0.010071	-1.98538e-06	3.62195	3.55866	1	12	0.00997149	8.44853e-06	0.000112	0.000839833	0.000847268	82.4038
25.3653	234.128	1679.12	1695.36	-82.0621	15.2259	-0.0100802	-8.74218e-06	3.7368	3.66553	1	13	0.00999649	5.89637e-06	8.1457e-05	0.000584193	0.000589844	82.0621
17.1327	364.959	2399.92	2427.51	-81.3532	15.6399	-0.0100856	-1.35846e-05	3.87078	3.78329	1	13	0.00997839	4.11055e-06	6.19331e-05	0.000407263	0.000411945	81.3532
11.5912	573.975	3395.11	3443.29	-80.4043	16.0493	-0.0100859	-1.25554e-05	4.04423	3.93185	1	13	0.00996711	2.89465e-06	4.84112e-05	0.000286357	0.00029042	80.4043
7.82815	885.418	4800.34	4881.31	-79.5493	16.6303	-0.0100798	-4.77622e-06	4.23535	4.096	1	13	0.0099714	2.04277e-06	3.716e-05	0.000201465	0.000204863	79.5493
5.29302	1340.65	6733.17	6865.34	-78.739	17.4667	-0.0100762	-1.01899e-06	4.46578	4.29548	1	13	0.00996778	1.4519e-06	2.84441e-05	0.000142855	0.000145659	78.739
3.57551	1999.98	9427.22	9637.03	-78.0223	19.2904	-0.0100759	-1.09137e-06	4.72169	4.51834	1	14	0.00997255	1.03481e-06	2.15347e-05	0.000101507	0.000103766	78.0223
2.41723	2830.1	13171	13471.7	-77.8731	21.0666	-0.0100752	3.38404e-07	4.99898	4.77836	1	14	0.00996882	7.39984e-07	1.5594e-05	7.25734e-05	7.42298e-05	77.8731
1.63271	4061.13	18466.1	18907.4	-77.5968	23.6772	-0.0100735	1.16589e-06	5.27881	5.03527	1	14	0.00996913	5.2726e-07	1.13601e-05	5.16548e-05	5.28892e-05	77.5968
1.10206	5747.6	25806.2	26438.5	-77.4439	27.5276	-0.0100749	1.58706e-06	5.59618	5.3317	1	14	0.00996749	3.77007e-07	8.22269e-06	3.69191e-05	3.78237e-05	77.4439
0.745609	8243.63	36320.5	37244.3	-77.2123	33.1994	-0.0100753	8.4423e-07	5.87702	5.5891	1	14	0.00996863	2.67655e-07	5.94292e-06	2.61838e-05	2.68498e-05	77.2123
0.503902	11866.5	50971.8	52334.9	-76.8947	41.5753	-0.0100721	4.75819e-07	6.19646	5.87789	1	14	0.00996688	1.90444e-07	4.33252e-06	1.86101e-05	1.91077e-05	76.8947
0.340103	17639.9	71336.3	73485	-76.1106	53.9687	-0.0100753	1.19139e-06	6.55993	6.18193	1	14	0.00996909	1.35662e-07	3.26663e-06	1.32103e-05	1.36082e-05	76.1106
0.230213	26893.5	99571.9	103140	-74.8856	72.2619	-0.0100737	1.13997e-06	6.94311	6.47105	1	14	0.00996598	9.6626e-08	2.5281e-06	9.36018e-06	9.69558e-06	74.8856
0.155473	41681.9	137637	143810	-73.1517	99.3332	-0.0100749	1.08051e-06	7.43756	6.81275	1	14	0.00996766	6.93112e-08	2.01543e-06	6.65513e-06	6.95361e-06	73.1517
0.105049	64540.9	188047	198814	-71.0569	139.383	-0.0100772	9.73902e-07	8.0568	7.20774	1	14	0.00996708	5.01326e-08	1.63283e-06	4.75742e-06	5.02982e-06	71.0569
0.0710227	100133	252554	271680	-68.3725	198.604	-0.010078	9.80875e-07	8.87297	7.66763	1	14	0.00996718	3.66872e-08	1.35663e-06	3.42167e-06	3.6808e-06	68.3725
0.0479883	153853	333659	367422	-65.2452	286.234	-0.0100841	1.11182e-06	9.93989	8.19703	1	14	0.009965	2.71214e-08	1.13966e-06	2.47157e-06	2.72167e-06	65.2452
0.0324439	229046	430751	487861	-61.9988	415.835	-0.0100768	1.2406e-06	11.3883	8.87811	1	14	0.00996683	2.04297e-08	9.62343e-07	1.80981e-06	2.04976e-06	61.9988
0.0219206	333908	545803	639840	-58.5428	607.636	-0.0100927	1.58733e-06	13.3025	9.67968	1	14	0.00996569	1.55753e-08	8.15613e-07	1.33319e-06	1.56289e-06	58.5428
0.0148076	466893	671074	817514	-55.1721	891.554	-0.0100818	9.37729e-07	16.0164	10.7923	1	14	0.00996692	1.21917e-08	6.98597e-07	1.00411e-06	1.22322e-06	55.1721
0.0100006	633804	799777	1.02047e+06	-51.604	1311.93	-0.0100861	8.00753e-07	19.8986	12.2226	1	14	0.00996675	9.76686e-09	6.08636e-07	7.68019e-07	9.79944e-07	51.604

File: 0708_01_EIS_0.5MTFSI_Blocking_OutsideGB_Day_2_RT_C02.mpt
EC-Lab ASCII FILE
Nb header lines : 62

Potentio Electrochemical Impedance Spectroscopy

Run on channel : 2 (SN 35514)
User :
CE vs. WE compliance from -10 V to 10 V
Electrode connection : standard
Ewe ctrl range : min = -5.00 V, max = 5.00 V
Safety Limits :
	Do not start on E overload
Acquisition started on : 07/09/2023 14:50:14
Technique started on : 07/09/2023 14:50:16
Saved on :
	File : 0708_01_EIS_0.5MTFSI_Blocking_OutsideGB_Day_2_RT_C02.mpr
	Directory : C:\Users\CESL\Documents\EC-Lab\Data\PhD\Leifer\Results\Zn Ion GPE\2023\0708\
	Host : 10.110.196.171
Device : VSP (SN 1724172417241724)
Address : USB
EC-Lab for windows v11.16 (software)
Internet server v11.16 (firmware)
Command interpretor v11.16 (firmware)
Electrode material : Au/Pd
Initial state :
Electrolyte : NaCl (0.2M)
Comments : Fe(CN)63-/Fe(CN)64- 5.10-3 M
Reference electrode : SCE Saturated Calomel Electrode (0.241 V)
Electrode surface area : 0.001 cm²
Characteristic mass : 0.001 g
Equivalent Weight : 0.000 g/eq.
Density : 0.000 g/cm3
Cycle Definition : Charge/Discharge alternance
Mode                Single sine
E (V)               0.0000
vs.                 Eoc
tE (h:m:s)          0:00:0.0000
record              0
dI                  0.000
unit dI             mA
dt (s)              0.000
fi                  1.000
unit fi             MHz
ff                  10.000
unit ff             mHz
Nd                  6
Points              per decade
spacing             Logarithmic
Va (mV)             10.0
pw                  0.10
Na                  2
corr                1
E range min (V)     -5.000
E range max (V)     5.000
I Range             Auto
Bandwidth           5
nc cycles           0
goto Ns'            0
nr cycles           0
inc. cycle          0

freq/Hz	Re(Z)/Ohm	-Im(Z)/Ohm	|Z|/Ohm	Phase(Z)/deg	time/s	<Ewe>/V	<I>/mA	Cs/µF	Cp/µF	cycle number	I Range	|Ewe|/V	|I|/A	Re(Y)/Ohm-1	Im(Y)/Ohm-1	|Y|/Ohm-1	Phase(Y)/deg
1.00002e+06	-15.4678	8.15762	17.4871	-152.193	2.3071	-0.009512	0.00526188	0.0195096	0.00424558	1	10	0.000190503	1.08939e-05	-0.0505815	0.0266763	0.0571849	152.193
675752	39.9806	-11.0837	41.4885	15.4949	2.71608	-0.0104484	0.00117493	-0.0212494	-0.00151658	1	10	0.00121065	2.91803e-05	0.023227	-0.00643919	0.0241031	-15.4949
456640	14.9425	-2.77243	15.1976	10.5111	3.12508	-0.0104728	0.00188904	-0.125714	-0.00418369	1	10	0.00452554	0.000297781	0.0646959	-0.0120036	0.0658	-10.5111
308574	11.6683	-1.245	11.7345	6.09042	3.5341	-0.0107361	0.001477	-0.414276	-0.0046634	1	10	0.0100014	0.00085231	0.0847379	-0.00904154	0.0852189	-6.09042
208525	10.594	-0.523676	10.6069	2.82991	4.07509	-0.0107433	0.0015348	-1.45747	-0.00355259	1	10	0.0101273	0.000954782	0.0941631	-0.00465461	0.0942781	-2.82991
140908	10.1917	0.0185624	10.1917	-0.104355	4.61608	-0.0107098	0.00295181	60.8484	0.000201849	1	10	0.0101647	0.000997349	0.0981191	0.000178708	0.0981193	0.104355
95214.8	10.0464	0.497708	10.0587	-2.83617	5.1571	-0.0107221	0.00196177	3.35846	0.00822253	1	10	0.010082	0.00100232	0.0992945	0.00491915	0.0994163	2.83617
64345.7	10.0455	1.01853	10.097	-5.78956	5.56608	-0.0107062	0.00314385	2.42843	0.0247111	1	10	0.0105953	0.00104935	0.0985342	0.0099906	0.0990394	5.78956
43476.5	10.1213	1.63038	10.2518	-9.15078	5.97509	-0.0106969	0.00341047	2.24531	0.0567875	1	10	0.0105615	0.00103021	0.0963024	0.0155127	0.0975438	9.15078
29384.8	10.2669	2.40503	10.5449	-13.1839	6.38409	-0.0107002	0.00291265	2.25204	0.117149	1	10	0.010359	0.000982379	0.0923335	0.0216292	0.094833	13.1839
19853.5	10.4579	3.426	11.0048	-18.1387	6.79308	-0.0107022	0.00376472	2.33989	0.22678	1	10	0.010211	0.000927863	0.0863536	0.0282893	0.0908693	18.1387
13418	10.7066	4.82847	11.745	-24.2745	7.07008	-0.0107047	0.00391202	2.45654	0.415182	1	10	0.0109457	0.000931945	0.0776149	0.035003	0.0851427	24.2745
9082.03	10.9704	6.82011	12.9176	-31.8685	7.50734	-0.0106741	0.0044378	2.56948	0.716253	1	10	0.0101104	0.000782683	0.0657447	0.0408723	0.0774139	31.8685
6140.96	11.2893	9.7249	14.9004	-40.7424	7.91064	-0.0106956	0.00159258	2.66501	1.1352	1	10	0.0100637	0.000675399	0.0508477	0.0438014	0.0671122	40.7424
4141.32	11.6987	13.9738	18.2243	-50.0645	8.37671	-0.0106638	0.0038915	2.75021	1.61693	1	10	0.00992427	0.000544561	0.0352235	0.0420738	0.0548717	50.0645
2797.31	12.2364	20.1424	23.5679	-58.7216	8.84296	-0.0106611	0.0036025	2.82467	2.06323	1	10	0.00978491	0.000415179	0.0220298	0.0362635	0.0424306	58.7216
1890.6	13.048	29.1464	31.9337	-65.8833	9.30767	-0.0106563	0.00426812	2.88825	2.40605	1	10	0.00970622	0.000303949	0.0127952	0.0285815	0.0313148	65.8833
1287.12	14.192	41.8877	44.2266	-71.2831	10.0262	-0.0106837	0.000210961	2.95199	2.64802	1	11	0.010071	0.000227713	0.00725564	0.0214151	0.0226108	71.2831
863.066	15.914	61.0249	63.0658	-75.384	10.4932	-0.0106835	0.000298239	3.02182	2.82941	1	11	0.00981647	0.000155655	0.0040012	0.0153433	0.0158565	75.384
583.692	18.5114	88.2987	90.2182	-78.1597	10.9602	-0.0106927	0.000225878	3.08803	2.95802	1	11	0.00970631	0.000107587	0.00227432	0.0108484	0.0110842	78.1597
394.117	22.3586	127.83	129.77	-80.0788	11.4272	-0.0106889	0.000318938	3.1591	3.06532	1	11	0.00964616	7.43326e-05	0.00132769	0.00759069	0.00770593	80.0788
266.449	28.0841	184.269	186.397	-81.3343	11.8906	-0.0106834	0.000252359	3.24155	3.16796	1	11	0.00962594	5.16422e-05	0.00080832	0.00530365	0.0053649	81.3343
180.058	35.4151	267.419	269.754	-82.4561	12.6087	-0.0106795	-4.87485e-05	3.30534	3.24837	1	12	0.00970063	3.5961e-05	0.00048669	0.00367499	0.00370708	82.4561
121.595	49.8673	387.79	390.983	-82.6723	13.0691	-0.0106846	-9.19702e-05	3.37526	3.32035	1	12	0.00965467	2.46933e-05	0.000326212	0.00253677	0.00255766	82.6723
82.2368	71.6866	559.735	564.306	-82.7017	13.5243	-0.0106903	-5.2814e-05	3.45758	3.40178	1	12	0.0096225	1.70519e-05	0.000225117	0.00175773	0.00177209	82.7017
55.5152	101.344	809.372	815.692	-82.863	13.9859	-0.0106835	-8.84698e-06	3.5421	3.48742	1	12	0.00960522	1.17755e-05	0.000152316	0.00121645	0.00122595	82.863
37.5601	151.41	1163.26	1173.07	-82.5841	14.4768	-0.0106796	-4.88519e-05	3.64265	3.58197	1	12	0.00960617	8.18892e-06	0.000110029	0.000845334	0.000852464	82.5841
25.3653	232.59	1672.13	1688.23	-82.0811	15.1859	-0.0106827	-2.70675e-09	3.75242	3.68119	1	13	0.0096262	5.70195e-06	8.16071e-05	0.000586688	0.000592337	82.0811
17.1327	370.652	2389.24	2417.82	-81.1818	15.5998	-0.0106916	-1.64748e-05	3.88809	3.79671	1	13	0.0096128	3.97582e-06	6.34044e-05	0.000408708	0.000413596	81.1818
11.5912	571.055	3392.33	3440.06	-80.4446	16.0093	-0.0106878	-2.49578e-06	4.04754	3.93601	1	13	0.00960136	2.79104e-06	4.82553e-05	0.000286659	0.000290692	80.4446
7.82815	886.811	4798.05	4879.32	-79.5283	16.5913	-0.0106779	-8.95484e-06	4.23736	4.09739	1	13	0.00959825	1.96713e-06	3.72489e-05	0.000201533	0.000204947	79.5283
5.29302	1354.65	6698.64	6834.24	-78.5674	17.4277	-0.0106749	-6.15727e-06	4.48879	4.31243	1	13	0.0095941	1.40383e-06	2.90032e-05	0.000143419	0.000146322	78.5674
3.57551	1971.84	9396.71	9601.37	-78.1488	19.2513	-0.0106721	1.37876e-06	4.73703	4.53723	1	14	0.00960485	1.00036e-06	2.13897e-05	0.000101932	0.000104152	78.1488
2.41723	2812.22	13152.4	13449.7	-77.9308	21.0285	-0.0106691	2.63747e-06	5.00607	4.78721	1	14	0.00960067	7.13822e-07	1.55463e-05	7.27078e-05	7.43513e-05	77.9308
1.63271	4031.68	18403.5	18839.9	-77.6433	23.6394	-0.010674	3.40016e-07	5.29678	5.05422	1	14	0.00959968	5.09539e-07	1.13587e-05	5.18492e-05	5.30788e-05	77.6433
1.10206	5693.65	25816.3	26436.7	-77.5628	27.4883	-0.0106727	3.05894e-07	5.59399	5.33452	1	14	0.0095995	3.63113e-07	8.14662e-06	3.69386e-05	3.78263e-05	77.5628
0.745609	8111.89	36164	37062.6	-77.3573	33.1601	-0.0106669	1.10873e-06	5.90245	5.6197	1	14	0.00959782	2.58962e-07	5.9054e-06	2.63272e-05	2.69814e-05	77.3573
0.503902	11682.8	51003.7	52324.6	-77.0985	41.5359	-0.0106755	1.72381e-06	6.19259	5.88388	1	14	0.00959618	1.83397e-07	4.26712e-06	1.8629e-05	1.91115e-05	77.0985
0.340103	17343.2	71472.8	73546.9	-76.3605	53.9294	-0.010674	8.75751e-07	6.54741	6.18332	1	14	0.00959903	1.30516e-07	3.20628e-06	1.32133e-05	1.35968e-05	76.3605
0.230213	26165.7	99875.4	103246	-75.3194	72.2227	-0.0106752	7.79575e-07	6.92201	6.47743	1	14	0.00959688	9.29515e-08	2.45463e-06	9.3694e-06	9.6856e-06	75.3194
0.155473	40457.1	138242	144040	-73.6876	99.294	-0.0106772	8.62311e-07	7.40504	6.82086	1	14	0.00959732	6.66295e-08	1.94997e-06	6.66304e-06	6.94252e-06	73.6876
0.105049	63038.8	189851	200044	-71.6316	139.343	-0.0106827	9.40597e-07	7.9802	7.18774	1	14	0.00959806	4.79798e-08	1.57528e-06	4.74421e-06	4.99891e-06	71.6316
0.0710227	97866.2	255918	273993	-69.0726	198.564	-0.0106782	9.51762e-07	8.75631	7.63917	1	14	0.00959769	3.5029e-08	1.30363e-06	3.40897e-06	3.64973e-06	69.0726
0.0479883	150544	339630	371500	-66.0943	286.195	-0.0106781	8.9999e-07	9.76514	8.16158	1	14	0.00959709	2.58334e-08	1.0908e-06	2.46087e-06	2.69179e-06	66.0943
0.0324439	226003	440048	494692	-62.8156	415.796	-0.0106844	9.35528e-07	11.1477	8.821	1	14	0.00959845	1.94029e-08	9.23516e-07	1.79817e-06	2.02146e-06	62.8156
0.0219206	329563	553505	644188	-59.23	607.597	-0.0106846	8.661e-07	13.1174	9.68419	1	14	0.00959813	1.48996e-08	7.94167e-07	1.33381e-06	1.55234e-06	59.23
0.0148076	466010	682508	826428	-55.6751	891.515	-0.0106818	9.54855e-07	15.7481	10.7407	1	14	0.00959725	1.16129e-08	6.82317e-07	9.99305e-07	1.21003e-06	55.6751
0.0100006	634781	811802	1.03052e+06	-51.9767	1311.89	-0.0106793	9.30149e-07	19.6039	12.1655	1	14	0.00959888	9.31461e-09	5.9774e-07	7.64431e-07	9.70385e-07	51.9767