Folder: PhD_Markup_Experiment/Python Codes/Alyssa_Old_Files/Functions.py/EIS Results/EIS_2023_07_08_Temp_In_Out_GB (part 12)

File: 0708_01_EIS_0.5MTFSI_SymCell_OutsideGB_sanded_60C_overnight_C04.mpt
EC-Lab ASCII FILE
Nb header lines : 62

Potentio Electrochemical Impedance Spectroscopy

Run on channel : 4 (SN 35517)
User :
CE vs. WE compliance from -10 V to 10 V
Electrode connection : standard
Ewe ctrl range : min = -5.00 V, max = 5.00 V
Safety Limits :
	Do not start on E overload
Acquisition started on : 07/10/2023 07:23:32
Technique started on : 07/10/2023 07:23:34
Saved on :
	File : 0708_01_EIS_0.5MTFSI_SymCell_OutsideGB_sanded_60C_overnight_C04.mpr
	Directory : C:\Users\CESL\Documents\EC-Lab\Data\PhD\Leifer\Results\Zn Ion GPE\2023\0708\
	Host : 10.110.196.171
Device : VSP (SN 1724172417241724)
Address : USB
EC-Lab for windows v11.16 (software)
Internet server v11.16 (firmware)
Command interpretor v11.16 (firmware)
Electrode material : Au/Pd
Initial state :
Electrolyte : NaCl (0.2M)
Comments : Fe(CN)63-/Fe(CN)64- 5.10-3 M
Reference electrode : SCE Saturated Calomel Electrode (0.241 V)
Electrode surface area : 0.001 cm²
Characteristic mass : 0.001 g
Equivalent Weight : 0.000 g/eq.
Density : 0.000 g/cm3
Cycle Definition : Charge/Discharge alternance
Mode                Single sine
E (V)               0.0000
vs.                 Eoc
tE (h:m:s)          0:00:0.0000
record              0
dI                  0.000
unit dI             mA
dt (s)              0.000
fi                  1.000
unit fi             MHz
ff                  10.000
unit ff             mHz
Nd                  6
Points              per decade
spacing             Logarithmic
Va (mV)             10.0
pw                  0.10
Na                  2
corr                1
E range min (V)     -5.000
E range max (V)     5.000
I Range             Auto
Bandwidth           5
nc cycles           0
goto Ns'            0
nr cycles           0
inc. cycle          0

freq/Hz	Re(Z)/Ohm	-Im(Z)/Ohm	|Z|/Ohm	Phase(Z)/deg	time/s	<Ewe>/V	<I>/mA	Cs/µF	Cp/µF	cycle number	I Range	|Ewe|/V	|I|/A	Re(Y)/Ohm-1	Im(Y)/Ohm-1	|Y|/Ohm-1	Phase(Y)/deg
1.00002e+06	266.013	87.6118	280.069	-18.2294	2.48809	0.000146079	0.000359251	0.00181656	0.000177764	1	11	0.00103822	3.70703e-06	0.00339135	0.00111694	0.00357054	18.2294
675752	77.2069	20.3253	79.8375	-14.7489	2.89708	8.9952e-05	0.000873219	0.0115877	0.000751027	1	11	0.00435478	5.45455e-05	0.0121127	0.00318877	0.0125254	14.7489
456640	62.6127	20.1427	65.7729	-17.8331	3.30609	0.000276402	0.000723494	0.0173033	0.00162282	1	11	0.00991952	0.000150815	0.0144733	0.00465611	0.0152038	17.8331
308574	61.3214	22.903	65.4589	-20.4802	3.84708	0.000242185	0.000881622	0.02252	0.00275687	1	11	0.010157	0.000155165	0.0143112	0.00534509	0.0152768	20.4802
208525	64.2241	27.0861	69.7022	-22.8673	4.2561	0.000272468	0.000939123	0.0281783	0.00425515	1	11	0.01097	0.000157384	0.0132192	0.00557512	0.0143468	22.8673
140908	69.327	32.0918	76.3945	-24.8396	4.66508	0.000304596	0.000936508	0.0351957	0.00621089	1	11	0.0109166	0.000142898	0.011879	0.00549882	0.0130899	24.8396
95214.8	76.1198	38.0293	85.0909	-26.5466	5.07409	0.000298089	0.000678311	0.0439539	0.00877946	1	11	0.010795	0.000126864	0.0105131	0.00525233	0.0117521	26.5466
64345.7	84.454	44.9593	95.6756	-28.0287	5.48309	0.000317425	0.000880127	0.055015	0.0121484	1	11	0.0106436	0.000111246	0.0092261	0.00491153	0.010452	28.0287
43476.5	94.2784	52.9109	108.111	-29.302	5.89208	0.000321155	0.000775952	0.0691863	0.0165719	1	11	0.0105125	9.72378e-05	0.00806627	0.00452695	0.00924976	29.302
29384.8	105.711	62.7969	122.957	-30.712	6.30108	0.000322758	0.000816464	0.0862502	0.0224974	1	11	0.010327	8.39893e-05	0.00699226	0.00415369	0.00813295	30.712
19853.5	118.891	74.6859	140.403	-32.1366	6.7101	0.000317332	0.000841853	0.107336	0.0303716	1	11	0.0101711	7.24421e-05	0.00603108	0.00378866	0.00712235	32.1366
13418	134.045	89.6886	161.282	-33.7863	6.98709	0.000316213	0.000801714	0.13225	0.0408975	1	11	0.0105674	6.55211e-05	0.00515318	0.00344797	0.0062003	33.7863
9082.03	151.141	108.835	186.249	-35.7573	7.28334	0.000327644	0.000588884	0.161016	0.0549817	1	11	0.010619	5.7015e-05	0.00435707	0.00313748	0.00536916	35.7573
6140.96	170.056	133.616	216.269	-38.1572	7.68664	0.00032701	0.000437849	0.193966	0.0740377	1	11	0.0105571	4.88146e-05	0.00363583	0.00285673	0.00462387	38.1572
4141.32	192.814	166.332	254.644	-40.783	8.15269	0.000370979	0.000637797	0.231049	0.0985804	1	11	0.0104937	4.12094e-05	0.00297352	0.00256513	0.00392705	40.783
2797.31	219.38	211.054	304.42	-43.8918	8.61892	0.000373105	0.000565547	0.269579	0.129577	1	11	0.0104329	3.42715e-05	0.00236729	0.00227744	0.00328494	43.8918
1890.6	251.077	271.365	369.7	-47.2238	9.55767	0.000338739	0.000109058	0.310217	0.167137	1	12	0.0100994	2.73179e-05	0.00183699	0.00198542	0.00270489	47.2238
1287.12	286.579	353.603	455.151	-50.9769	10.0242	0.000340547	-3.77496e-07	0.349692	0.21106	1	12	0.00983347	2.16048e-05	0.00138335	0.00170689	0.00219707	50.9769
863.066	333.134	466.934	573.59	-54.494	10.4912	0.000334338	-1.97336e-05	0.39493	0.261715	1	12	0.00967206	1.68623e-05	0.00101255	0.00141923	0.0017434	54.494
583.692	390.619	627.04	738.758	-58.0788	10.9582	0.000335289	4.24405e-05	0.434851	0.313276	1	12	0.0095818	1.29702e-05	0.000715731	0.00114892	0.00135362	58.0788
394.117	480.477	853.779	979.692	-60.6307	11.4252	0.000330515	7.98085e-05	0.472987	0.359221	1	12	0.00952866	9.72619e-06	0.000500603	0.000889542	0.00102073	60.6307
266.449	567.984	1146.76	1279.71	-63.651	11.8887	0.000331951	4.77973e-05	0.520875	0.418267	1	12	0.00949707	7.42126e-06	0.000346827	0.000700242	0.000781427	63.651
180.058	727.921	1589.48	1748.23	-65.3941	12.3537	0.000334823	5.19037e-05	0.5561	0.45969	1	12	0.00948218	5.42386e-06	0.000238169	0.000520064	0.000572006	65.3941
121.595	953.255	2179.94	2379.25	-66.3809	13.0631	0.000342058	-1.59357e-05	0.600426	0.504043	1	13	0.00955547	4.01617e-06	0.000168395	0.000385092	0.000420301	66.3809
82.2368	1296.17	2966.73	3237.52	-66.3994	13.5183	0.000342244	-1.38638e-05	0.652343	0.547781	1	13	0.00950302	2.93528e-06	0.000123662	0.000283044	0.000308878	66.3994
55.5152	1846.91	3997.43	4403.47	-65.2019	13.9799	0.00034519	-1.43174e-05	0.717179	0.591016	1	13	0.00948145	2.15318e-06	9.52483e-05	0.000206154	0.000227094	65.2019
37.5601	2673.45	5363.09	5992.5	-63.5042	14.4718	0.000343717	-1.07204e-05	0.790094	0.632838	1	13	0.00947409	1.58099e-06	7.44485e-05	0.000149348	0.000166875	63.5042
25.3653	4116.3	6945.45	8073.61	-59.3464	14.9309	0.000334189	-8.3498e-06	0.903401	0.668568	1	13	0.00946195	1.17196e-06	6.31497e-05	0.000106553	0.00012386	59.3464
17.1327	6195.46	8899.15	10843.4	-55.1549	15.3448	0.000335289	-2.38634e-05	1.04387	0.703097	1	13	0.00946906	8.73258e-07	5.2692e-05	7.56868e-05	9.22223e-05	55.1549
11.5912	8988.11	10477.1	13804.2	-49.3743	15.9803	0.000332716	-7.12964e-06	1.31054	0.754935	1	14	0.00948299	6.86966e-07	4.7168e-05	5.49818e-05	7.24418e-05	49.3743
7.82815	12638.4	11477.8	17072.4	-42.2448	16.5613	0.000337928	-9.32452e-06	1.77134	0.800624	1	14	0.00946811	5.54585e-07	4.33611e-05	3.93793e-05	5.8574e-05	42.2448
5.29302	16572.8	11503.3	20173.9	-34.7649	17.3977	0.000344737	-8.05283e-06	2.61392	0.849889	1	14	0.00947013	4.69425e-07	4.07209e-05	2.82648e-05	4.95691e-05	34.7649
3.57551	20141.3	10621.8	22770.5	-27.8056	18.6134	0.00035331	-7.43062e-06	4.19065	0.911874	1	14	0.00946767	4.15786e-07	3.88456e-05	2.04858e-05	4.39164e-05	27.8056
2.41723	23036.8	9240.86	24821.1	-21.8575	20.3906	0.000345055	-8.00097e-06	7.12507	0.98758	1	14	0.00947039	3.81546e-07	3.73921e-05	1.49993e-05	4.02883e-05	21.8575
1.63271	25193.7	7753.2	26359.7	-17.1054	23.0015	0.000342831	-7.4905e-06	12.5728	1.08771	1	14	0.00946905	3.59224e-07	3.62586e-05	1.11583e-05	3.79367e-05	17.1054
1.10206	26732.3	6409.42	27489.9	-13.4829	26.8505	0.000345105	-7.51311e-06	22.5318	1.22486	1	14	0.00946876	3.44445e-07	3.53744e-05	8.48149e-06	3.6377e-05	13.4829
0.745609	27915.8	5318.32	28417.9	-10.7863	32.5222	0.000345588	-7.77303e-06	40.136	1.40572	1	14	0.00946756	3.33155e-07	3.45674e-05	6.58552e-06	3.51891e-05	10.7863
0.503902	28796.5	4557.76	29155	-8.99388	40.898	0.000343837	-7.10168e-06	69.2982	1.69356	1	14	0.00946988	3.24812e-07	3.38778e-05	5.362e-06	3.42995e-05	8.99388
0.340103	29562.6	4023.79	29835.1	-7.75095	53.2915	0.000344404	-6.33905e-06	116.299	2.11538	1	14	0.00947008	3.17414e-07	3.32113e-05	4.52042e-06	3.35175e-05	7.75095
0.230213	30148.2	3753.1	30380.9	-7.09616	71.5848	0.000343921	-5.24164e-06	184.205	2.81112	1	14	0.00947101	3.11742e-07	3.26633e-05	4.0662e-06	3.29154e-05	7.09616
0.155473	30818.8	3694.67	31039.5	-6.83621	98.656	0.000342388	-6.00376e-06	277.07	3.92567	1	14	0.0094691	3.05066e-07	3.1988e-05	3.83484e-06	3.2217e-05	6.83621
0.105049	31433.5	3970.9	31683.3	-7.19987	138.705	0.000340919	-6.54195e-06	381.539	5.99317	1	14	0.00946891	2.98861e-07	3.13135e-05	3.95574e-06	3.15624e-05	7.19987
0.0710227	32007	4400.31	32308.1	-7.82792	197.926	0.00034042	-6.60323e-06	509.26	9.44678	1	14	0.00946944	2.93098e-07	3.06636e-05	4.21561e-06	3.0952e-05	7.82792
0.0479883	32868.4	5265.54	33287.5	-9.10149	285.556	0.000343581	-8.32524e-06	629.856	15.7603	1	14	0.00946862	2.8445e-07	2.96631e-05	4.75205e-06	3.00413e-05	9.10149
0.0324439	33830.9	6483.18	34446.5	-10.8483	415.156	0.000345791	-1.00895e-05	756.656	26.8031	1	14	0.00946989	2.74916e-07	2.85117e-05	5.46384e-06	2.90305e-05	10.8483
0.0219206	35619.3	7924.55	36490.1	-12.5428	606.957	0.000342509	-5.75286e-06	916.206	43.2107	1	14	0.00946869	2.59486e-07	2.67506e-05	5.95146e-06	2.74047e-05	12.5428
0.0148076	37615.8	9463.64	38788	-14.1218	890.874	0.000341518	-3.89452e-06	1135.73	67.608	1	14	0.00946833	2.44105e-07	2.5002e-05	6.29018e-06	2.57812e-05	14.1218
0.0100006	40350.6	10885.1	41793	-15.0969	1311.25	0.000343084	-1.32604e-05	1462.05	99.1784	1	14	0.00947053	2.26606e-07	2.31017e-05	6.23196e-06	2.39275e-05	15.0969

File: 0708_01_EIS_0.5MTFSI_SymCell_OutsideGB_sanded_60C_t2_C04.mpt
EC-Lab ASCII FILE
Nb header lines : 62

Potentio Electrochemical Impedance Spectroscopy

Run on channel : 4 (SN 35517)
User :
CE vs. WE compliance from -10 V to 10 V
Electrode connection : standard
Ewe ctrl range : min = -5.00 V, max = 5.00 V
Safety Limits :
	Do not start on E overload
Acquisition started on : 07/09/2023 16:27:00
Technique started on : 07/09/2023 16:27:02
Saved on :
	File : 0708_01_EIS_0.5MTFSI_SymCell_OutsideGB_sanded_60C_t2_C04.mpr
	Directory : C:\Users\CESL\Documents\EC-Lab\Data\PhD\Leifer\Results\Zn Ion GPE\2023\0708\
	Host : 10.110.196.171
Device : VSP (SN 1724172417241724)
Address : USB
EC-Lab for windows v11.16 (software)
Internet server v11.16 (firmware)
Command interpretor v11.16 (firmware)
Electrode material : Au/Pd
Initial state :
Electrolyte : NaCl (0.2M)
Comments : Fe(CN)63-/Fe(CN)64- 5.10-3 M
Reference electrode : SCE Saturated Calomel Electrode (0.241 V)
Electrode surface area : 0.001 cm²
Characteristic mass : 0.001 g
Equivalent Weight : 0.000 g/eq.
Density : 0.000 g/cm3
Cycle Definition : Charge/Discharge alternance
Mode                Single sine
E (V)               0.0000
vs.                 Eoc
tE (h:m:s)          0:00:0.0000
record              0
dI                  0.000
unit dI             mA
dt (s)              0.000
fi                  1.000
unit fi             MHz
ff                  10.000
unit ff             mHz
Nd                  6
Points              per decade
spacing             Logarithmic
Va (mV)             10.0
pw                  0.10
Na                  2
corr                1
E range min (V)     -5.000
E range max (V)     5.000
I Range             Auto
Bandwidth           5
nc cycles           0
goto Ns'            0
nr cycles           0
inc. cycle          0

freq/Hz	Re(Z)/Ohm	-Im(Z)/Ohm	|Z|/Ohm	Phase(Z)/deg	time/s	<Ewe>/V	<I>/mA	Cs/µF	Cp/µF	cycle number	I Range	|Ewe|/V	|I|/A	Re(Y)/Ohm-1	Im(Y)/Ohm-1	|Y|/Ohm-1	Phase(Y)/deg
1.00002e+06	193.261	-29.6899	195.528	8.73384	2.48808	0.00278994	0.000186747	-0.00536047	-0.000123595	1	11	0.000744517	3.80772e-06	0.00505505	-0.000776587	0.00511435	-8.73384
675752	50.867	-3.96795	51.0215	4.46041	2.89708	0.0027001	-0.000122974	-0.0593562	-0.000358999	1	11	0.0029111	5.70563e-05	0.0195402	-0.00152426	0.0195996	-4.46041
456640	39.2313	-1.02758	39.2447	1.5004	3.30609	0.00292683	-0.00032852	-0.33918	-0.000232541	1	11	0.00810514	0.000206528	0.0254724	-0.000667196	0.0254811	-1.5004
308574	35.8584	0.854231	35.8686	-1.36466	3.7151	0.00281074	0.000101998	0.603789	0.000342459	1	11	0.0107117	0.000298638	0.0278717	0.000663968	0.0278796	1.36466
208525	34.8611	2.42627	34.9454	-3.98126	4.1241	0.0028465	0.000207104	0.314573	0.00151642	1	11	0.0108981	0.00031186	0.028547	0.00198682	0.028616	3.98126
140908	34.9474	4.03884	35.18	-6.59238	4.53309	0.00287992	4.35429e-06	0.279658	0.00368595	1	11	0.0108345	0.000307973	0.0282373	0.00326336	0.0284253	6.59238
95214.8	35.617	5.60327	36.0551	-8.94049	4.94109	0.00289562	-0.000129878	0.298314	0.00720483	1	11	0.0107055	0.000296919	0.0273984	0.00431031	0.0277353	8.94049
64345.7	36.7083	7.3526	37.4375	-11.3263	5.35008	0.00289944	2.99314e-05	0.336403	0.0129756	1	11	0.0106521	0.000284531	0.026191	0.005246	0.0267112	11.3263
43476.5	38.0699	9.40548	39.2146	-13.8775	5.75908	0.00291574	0.000283273	0.38921	0.0223899	1	11	0.0105961	0.000270208	0.0247564	0.00611627	0.0255007	13.8775
29384.8	39.763	11.9195	41.5111	-16.6869	6.1681	0.00290649	0.000154828	0.454401	0.0374653	1	11	0.0105803	0.00025488	0.0230755	0.00691722	0.02409	16.6869
19853.5	41.645	15.1666	44.3208	-20.011	6.5771	0.00291514	5.45743e-05	0.52856	0.0618952	1	11	0.0104818	0.000236498	0.0212006	0.00772101	0.0225628	20.011
13418	43.7556	19.4905	47.9002	-24.0102	6.98609	0.0029176	-3.14053e-07	0.608569	0.100759	1	11	0.0102803	0.000214619	0.0190703	0.00849472	0.0208767	24.0102
9082.03	46.242	25.5035	52.8087	-28.8777	7.42335	0.00292124	2.75028e-05	0.687127	0.160261	1	11	0.0101368	0.000191954	0.0165816	0.00914513	0.0189363	28.8777
6140.96	49.2011	33.9856	59.7977	-34.6348	7.82665	0.00291148	0.000144558	0.762585	0.246326	1	11	0.0103253	0.000172671	0.0137596	0.00950443	0.016723	34.6348
4141.32	52.8343	45.9016	69.9887	-40.9836	8.2927	0.00294639	0.000779873	0.837245	0.360125	1	11	0.0101788	0.000145434	0.010786	0.00937069	0.014288	40.9836
2797.31	57.5837	62.7292	85.1519	-47.4489	8.75893	0.00294149	0.000776326	0.907003	0.492221	1	11	0.00998648	0.000117278	0.00794166	0.0086513	0.0117437	47.4489
1890.6	63.6947	86.32	107.276	-53.5767	9.22267	0.00295268	0.000767177	0.975232	0.63143	1	11	0.00983124	9.16443e-05	0.00553474	0.00750076	0.00932174	53.5767
1287.12	71.8741	118.491	138.586	-58.76	9.68919	0.0029531	0.000815903	1.04356	0.762869	1	11	0.00972718	7.01888e-05	0.00374226	0.00616947	0.00721574	58.76
863.066	83.1738	165.364	185.103	-63.2988	10.1562	0.00294451	0.000751307	1.11515	0.889999	1	11	0.00966183	5.2197e-05	0.00242749	0.00482629	0.00540239	63.2988
583.692	98.8415	230.747	251.026	-66.8119	10.6232	0.00294969	0.000746639	1.18168	0.998473	1	11	0.0096317	3.83694e-05	0.00156857	0.00366185	0.00398366	66.8119
394.117	119.849	323.834	345.3	-69.6908	11.3422	0.00293632	-5.91172e-05	1.24702	1.09679	1	12	0.00977765	2.83164e-05	0.00100517	0.00271599	0.00289603	69.6908
266.449	151.367	453.843	478.42	-71.5553	11.8057	0.00293306	-6.06106e-05	1.31613	1.18439	1	12	0.0096801	2.02335e-05	0.00066132	0.00198284	0.00209021	71.5553
180.058	198.711	633.144	663.594	-72.5756	12.2707	0.00292937	0.000143831	1.39607	1.27088	1	12	0.00964044	1.45276e-05	0.000451249	0.0014378	0.00150695	72.5756
121.595	264.431	893.012	931.34	-73.5054	12.7311	0.00293778	-6.97942e-05	1.4657	1.34755	1	12	0.00961101	1.03195e-05	0.000304857	0.00102953	0.00107372	73.5054
82.2368	378.506	1263.17	1318.66	-73.3193	13.1863	0.00292987	-5.62287e-06	1.53212	1.40588	1	12	0.00959713	7.27794e-06	0.000217674	0.000726433	0.000758345	73.3193
55.5152	585.372	1738.8	1834.69	-71.3941	13.6479	0.00293144	-2.48714e-06	1.64876	1.48092	1	12	0.00959026	5.22717e-06	0.000173903	0.000516564	0.00054505	71.3941
37.5601	924.734	2390.96	2563.56	-68.8554	14.4047	0.00294141	-3.45759e-05	1.77223	1.54163	1	13	0.00961805	3.75184e-06	0.000140712	0.00036382	0.000390083	68.8554
25.3653	1502.69	3208.47	3542.93	-64.9038	14.8639	0.00294087	-3.11526e-05	1.95561	1.60381	1	13	0.00959918	2.70939e-06	0.000119714	0.000255607	0.000282252	64.9038
17.1327	2439.3	4132.46	4798.69	-59.4475	15.2779	0.00293468	-2.91086e-05	2.24795	1.66709	1	13	0.00959732	1.99999e-06	0.00010593	0.000179458	0.00020839	59.4475
11.5912	3856.92	4991.26	6307.81	-52.3055	15.6873	0.00293254	-2.86382e-05	2.75093	1.72243	1	13	0.00959288	1.52079e-06	9.69355e-05	0.000125445	0.000158534	52.3055
7.82815	5590.21	5519.29	7855.76	-44.6342	16.2693	0.00293724	-3.02996e-05	3.68364	1.81831	1	13	0.00959252	1.22108e-06	9.0584e-05	8.94348e-05	0.000127295	44.6342
5.29302	7584.84	5525.06	9383.82	-36.0709	17.5327	0.00293629	-2.18175e-05	5.44226	1.88666	1	14	0.00959623	1.02264e-06	8.61364e-05	6.27448e-05	0.000106566	36.0709
3.57551	9290.99	5058.27	10578.7	-28.5651	18.7473	0.00294503	-1.98453e-05	8.79994	2.01196	1	14	0.00959508	9.0702e-07	8.3023e-05	4.52e-05	9.45297e-05	28.5651
2.41723	10640.2	4380.24	11506.5	-22.3755	20.5245	0.00294201	-2.00556e-05	15.0315	2.17827	1	14	0.00959325	8.33724e-07	8.0364e-05	3.30835e-05	8.69073e-05	22.3755
1.63271	11702.7	3687.77	12270	-17.4907	23.1354	0.00293814	-2.24712e-05	26.4331	2.38773	1	14	0.00959312	7.81834e-07	7.77313e-05	2.44948e-05	8.14994e-05	17.4907
1.10206	12525.7	3012.74	12883	-13.5241	26.9848	0.00294056	-1.87795e-05	47.935	2.62148	1	14	0.00959461	7.44752e-07	7.54696e-05	1.81523e-05	7.76219e-05	13.5241
0.745609	13164.6	2382.7	13378.5	-10.2591	32.6565	0.00294055	-2.06206e-05	89.586	2.84161	1	14	0.00959495	7.17193e-07	7.35519e-05	1.33124e-05	7.47469e-05	10.2591
0.503902	13656	1772.17	13770.5	-7.39409	41.0323	0.00293882	-2.00957e-05	178.225	2.95176	1	14	0.00959354	6.96676e-07	7.20153e-05	9.34561e-06	7.26192e-05	7.39409
0.340103	13948.7	1184.06	13998.9	-4.85201	53.4257	0.002941	-2.20372e-05	395.218	2.82746	1	14	0.00959386	6.85329e-07	7.11782e-05	6.04207e-06	7.14342e-05	4.85201
0.230213	14088.9	690.429	14105.8	-2.80554	71.7189	0.00293912	-2.02244e-05	1001.32	2.3989	1	14	0.00959348	6.80108e-07	7.08077e-05	3.46994e-06	7.08927e-05	2.80554
0.155473	14117.8	301.383	14121	-1.22295	98.7901	0.00294326	-1.0554e-05	3396.62	1.54723	1	14	0.00959294	6.79338e-07	7.08004e-05	1.51143e-06	7.08165e-05	1.22295
0.105049	14074.4	55.2437	14074.5	-0.224891	138.839	0.00294339	-4.45781e-06	27424.9	0.422516	1	14	0.00959331	6.81608e-07	7.10498e-05	2.78879e-07	7.10504e-05	0.224891
0.0710227	13938.1	-103.305	13938.5	0.42465	198.06	0.00294438	5.31975e-06	-21692.2	-1.19155	1	14	0.00959379	6.88294e-07	7.17418e-05	-5.31727e-07	7.17438e-05	-0.42465
0.0479883	13858	-167.926	13859.1	0.694253	285.691	0.00294346	2.91903e-05	-19750	-2.89958	1	14	0.00959281	6.92169e-07	7.21497e-05	-8.74281e-07	7.2155e-05	-0.694253
0.0324439	13989.7	-158.281	13990.6	0.648223	415.291	0.00294752	7.76815e-05	-30992.7	-3.96683	1	14	0.00959397	6.85746e-07	7.14721e-05	-8.08643e-07	7.14767e-05	-0.648223
0.0219206	14185.1	-47.3922	14185.2	0.191423	607.091	0.00294958	0.000167297	-153201	-1.71002	1	14	0.00959368	6.76315e-07	7.04955e-05	-2.35524e-07	7.04959e-05	-0.191423
0.0148076	14159.2	87.5698	14159.4	-0.354351	891.008	0.0029489	0.000285129	122738	4.6946	1	14	0.00959394	6.77565e-07	7.0623e-05	4.3678e-07	7.06243e-05	0.354351
0.0100006	13921.4	-123.014	13922	0.506271	1311.38	0.00294821	0.00042496	-129371	-10.1006	1	14	0.00959204	6.88985e-07	7.18261e-05	-6.34678e-07	7.18289e-05	-0.506271