Folder: PhD_Markup_Experiment/Python Codes/Alyssa_Old_Files/Functions.py/EIS Results/EIS_2023_07_08_Temp_In_Out_GB (part 5)

File: 0708_01_EIS_0.5MTFSI_Blocking_OutsideGB_24hr_60C_C03.mpt
EC-Lab ASCII FILE
Nb header lines : 62

Potentio Electrochemical Impedance Spectroscopy

Run on channel : 3 (SN 35515)
User :
CE vs. WE compliance from -10 V to 10 V
Electrode connection : standard
Ewe ctrl range : min = -5.00 V, max = 5.00 V
Safety Limits :
	Do not start on E overload
Acquisition started on : 07/09/2023 15:56:02
Technique started on : 07/09/2023 15:56:04
Saved on :
	File : 0708_01_EIS_0.5MTFSI_Blocking_OutsideGB_24hr_60C_C03.mpr
	Directory : C:\Users\CESL\Documents\EC-Lab\Data\PhD\Leifer\Results\Zn Ion GPE\2023\0708\
	Host : 10.110.196.171
Device : VSP (SN 1724172417241724)
Address : USB
EC-Lab for windows v11.16 (software)
Internet server v11.16 (firmware)
Command interpretor v11.16 (firmware)
Electrode material : Au/Pd
Initial state :
Electrolyte : NaCl (0.2M)
Comments : Fe(CN)63-/Fe(CN)64- 5.10-3 M
Reference electrode : SCE Saturated Calomel Electrode (0.241 V)
Electrode surface area : 0.001 cm²
Characteristic mass : 0.001 g
Equivalent Weight : 0.000 g/eq.
Density : 0.000 g/cm3
Cycle Definition : Charge/Discharge alternance
Mode                Single sine
E (V)               0.0000
vs.                 Eoc
tE (h:m:s)          0:00:0.0000
record              0
dI                  0.000
unit dI             mA
dt (s)              0.000
fi                  1.000
unit fi             MHz
ff                  10.000
unit ff             mHz
Nd                  6
Points              per decade
spacing             Logarithmic
Va (mV)             10.0
pw                  0.10
Na                  2
corr                1
E range min (V)     -5.000
E range max (V)     5.000
I Range             Auto
Bandwidth           5
nc cycles           0
goto Ns'            0
nr cycles           0
inc. cycle          0

freq/Hz	Re(Z)/Ohm	-Im(Z)/Ohm	|Z|/Ohm	Phase(Z)/deg	time/s	<Ewe>/V	<I>/mA	Cs/µF	Cp/µF	cycle number	I Range	|Ewe|/V	|I|/A	Re(Y)/Ohm-1	Im(Y)/Ohm-1	|Y|/Ohm-1	Phase(Y)/deg
1.00002e+06	-57.4675	18.9178	60.5012	-161.779	2.63808	-0.0158777	-0.00255332	0.00841283	0.000822533	1	11	0.000274223	4.53251e-06	-0.0156998	0.00516823	0.0165286	161.779
675752	37.4611	-10.7929	38.9849	16.0722	3.04708	-0.016545	-0.000896161	-0.021822	-0.00167254	1	11	0.00135314	3.47093e-05	0.0246483	-0.00710141	0.0256509	-16.0722
456640	22.4164	-4.02158	22.7743	10.1709	3.7501	-0.0165525	0.000870997	-0.086666	-0.00270243	1	10	0.00761201	0.000334238	0.0432192	-0.0077537	0.0439092	-10.1709
308574	18.8402	-2.13598	18.9609	6.46821	4.1591	-0.0167962	0.00183885	-0.24147	-0.00306436	1	10	0.0109044	0.000575099	0.0524044	-0.00594127	0.0527401	-6.46821
208525	17.9081	-1.22373	17.9498	3.90917	4.6991	-0.0168193	0.00213349	-0.6237	-0.00289885	1	10	0.0102493	0.000570997	0.0555812	-0.00379808	0.0557108	-3.90917
140908	17.508	-0.644192	17.5199	2.1072	5.24009	-0.0168056	0.00234049	-1.75335	-0.00237049	1	10	0.0101494	0.00057931	0.0570394	-0.00209872	0.057078	-2.1072
95214.8	17.4469	-0.229289	17.4484	0.752943	5.64909	-0.0168095	0.00165983	-7.29009	-0.00125889	1	10	0.0108211	0.000620177	0.0573069	-0.000753132	0.0573118	-0.752943
64345.7	17.4021	0.111872	17.4024	-0.368331	6.05808	-0.0167855	0.00319272	22.1095	0.000913698	1	10	0.0105293	0.00060505	0.057462	0.000369404	0.0574632	0.368331
43476.5	17.4174	0.408108	17.4222	-1.34226	6.46708	-0.0167914	0.00241322	8.96995	0.00492193	1	10	0.0103861	0.00059614	0.0573823	0.00134453	0.0573981	1.34226
29384.8	17.4953	0.750815	17.5114	-2.45735	6.87609	-0.0167977	0.00200482	7.21382	0.0132613	1	10	0.0102619	0.000586011	0.057053	0.00244844	0.0571055	2.45735
19853.5	17.582	1.14219	17.619	-3.71692	7.28509	-0.016791	0.002706	7.0185	0.0294956	1	10	0.0100366	0.000569648	0.0566374	0.00367938	0.0567568	3.71692
13418	17.7217	1.70234	17.8033	-5.48695	7.56209	-0.0168023	0.00189852	6.96768	0.0637056	1	10	0.0105629	0.000593311	0.055912	0.00537086	0.0561693	5.48695
9082.03	17.879	2.46273	18.0479	-7.8428	7.85933	-0.0167894	0.00245425	7.11574	0.132496	1	10	0.010816	0.000599296	0.0548899	0.00756076	0.0554082	7.8428
6140.96	18.1069	3.52332	18.4465	-11.0113	8.26265	-0.0168029	0.000130657	7.35582	0.268354	1	10	0.0109281	0.00059242	0.0532127	0.0103544	0.0542108	11.0113
4141.32	18.5266	5.02382	19.1956	-15.172	8.7287	-0.0167687	0.00230879	7.64974	0.523975	1	10	0.0109788	0.000571945	0.0502794	0.0136342	0.0520952	15.172
2797.31	19.0892	7.12558	20.3757	-20.4695	9.19495	-0.0167662	0.00259224	7.9847	0.976501	1	10	0.010982	0.000538972	0.0459791	0.017163	0.049078	20.4695
1890.6	19.8883	10.0234	22.2714	-26.7474	9.65971	-0.0167656	0.00274516	8.39854	1.70114	1	10	0.0109785	0.000492941	0.0400963	0.0202079	0.0449007	26.7474
1287.12	21.0112	13.9135	25.2003	-33.5124	10.1262	-0.0167639	0.00207195	8.8872	2.70911	1	10	0.0109539	0.000434672	0.0330855	0.0219091	0.039682	33.5124
863.066	22.8118	19.4656	29.9881	-40.4747	10.5932	-0.0167592	0.00251205	9.47343	3.99159	1	10	0.0109383	0.000364755	0.0253665	0.0216456	0.0333465	40.4747
583.692	25.3357	26.8736	36.9335	-46.6873	11.5342	-0.0167958	0.000170824	10.1464	5.3718	1	11	0.0102188	0.000276681	0.0185734	0.0197008	0.0270757	46.6873
394.117	28.9542	36.9032	46.9062	-51.8823	12.0012	-0.0167948	0.000344053	10.9429	6.77327	1	11	0.0101387	0.000216149	0.0131599	0.0167727	0.0213191	51.8823
266.449	33.9386	50.4212	60.7794	-56.0554	12.4647	-0.0167904	0.00019152	11.8465	8.15279	1	11	0.0100904	0.000166016	0.00918718	0.013649	0.0164529	56.0554
180.058	40.8219	68.3849	79.6424	-59.1652	12.9297	-0.0167945	0.00030657	12.9255	9.52971	1	11	0.0100569	0.000126276	0.00643583	0.0107813	0.0125561	59.1652
121.595	50.1339	92.4839	105.198	-61.5387	13.3901	-0.0167943	9.23157e-05	14.1526	10.9384	1	11	0.0100397	9.54363e-05	0.00453016	0.00835697	0.00950586	61.5387
82.2368	62.6682	124.8	139.65	-63.3364	13.8453	-0.0167928	0.000140797	15.5075	12.3846	1	11	0.0100227	7.17696e-05	0.00321338	0.00639924	0.00716074	63.3364
55.5152	80.1309	168.494	186.578	-64.5656	14.3079	-0.0167952	0.000199908	17.0147	13.8763	1	11	0.0100264	5.37383e-05	0.00230187	0.00484022	0.00535969	64.5656
37.5601	102.742	227.015	249.183	-65.6495	15.0648	-0.0167893	-1.49699e-05	18.6655	15.4922	1	12	0.0100393	4.02888e-05	0.00165468	0.00365612	0.00401312	65.6495
25.3653	133.843	306.858	334.777	-66.4344	15.5239	-0.0167942	-3.15651e-05	20.4477	17.1793	1	12	0.0100379	2.99839e-05	0.00119422	0.00273795	0.00298706	66.4344
17.1327	175.293	413.649	449.259	-67.0341	15.9379	-0.0168049	-0.000245918	22.4576	19.0386	1	12	0.0100265	2.23178e-05	0.000868504	0.00204946	0.00222589	67.0341
11.5912	234.572	557.783	605.099	-67.1911	16.3473	-0.0168021	-0.000192535	24.6164	20.9171	1	12	0.0100192	1.6558e-05	0.000640652	0.00152339	0.00165262	67.1911
7.82815	307.329	745.074	805.969	-67.5848	16.9293	-0.0167883	-5.74086e-05	27.2874	23.3197	1	12	0.0100233	1.24363e-05	0.000473115	0.001147	0.00124074	67.5848
5.29302	403.105	1006.91	1084.61	-68.182	18.1928	-0.016793	-2.07345e-05	29.8623	25.7374	1	13	0.0100284	9.24616e-06	0.000342668	0.00085595	0.000921994	68.182
3.57551	522.425	1358.49	1455.48	-68.9651	19.4073	-0.0167894	-1.25898e-05	32.7661	28.5446	1	13	0.0100241	6.88713e-06	0.00024661	0.000641273	0.000687057	68.9651
2.41723	691.503	1847.35	1972.53	-69.478	21.1845	-0.0167848	6.62381e-06	35.6412	31.261	1	13	0.0100255	5.08258e-06	0.000177724	0.00047479	0.000506963	69.478
1.63271	910.716	2507.87	2668.11	-70.0418	23.7954	-0.0167901	2.31663e-06	38.8694	34.3408	1	13	0.0100239	3.75693e-06	0.000127931	0.000352288	0.000374797	70.0418
1.10206	1199.6	3418.07	3622.47	-70.661	29.5084	-0.0167859	2.12884e-06	42.2507	37.6173	1	14	0.0100275	2.76814e-06	9.14173e-05	0.000260479	0.000276055	70.661
0.745609	1591.82	4666.28	4930.32	-71.1638	35.1801	-0.0167882	1.0744e-06	45.7444	40.9759	1	14	0.0100249	2.03332e-06	6.54854e-05	0.000191964	0.000202826	71.1638
0.503902	2118.28	6387.07	6729.18	-71.6519	43.556	-0.0167944	1.51087e-06	49.4506	44.5504	1	14	0.0100257	1.48988e-06	4.67799e-05	0.000141052	0.000148607	71.6519
0.340103	2860.63	8731.59	9188.25	-71.8603	55.9494	-0.0167877	-3.6121e-07	53.5941	48.3992	1	14	0.0100238	1.09094e-06	3.38841e-05	0.000103426	0.000108835	71.8603
0.230213	3841.95	11948.8	12551.2	-72.1756	74.2427	-0.0167859	2.3975e-06	57.8585	52.4373	1	14	0.0100235	7.98605e-07	2.43881e-05	7.5849e-05	7.96734e-05	72.1756
0.155473	5232.97	16254.2	17075.8	-72.1543	101.314	-0.0167883	-6.37327e-06	62.9796	57.0649	1	14	0.0100221	5.86918e-07	1.79467e-05	5.57446e-05	5.85623e-05	72.1543
0.105049	7211.51	22221.1	23362	-72.02	141.363	-0.0167873	-7.20758e-06	68.1809	61.6841	1	14	0.0100236	4.29056e-07	1.32131e-05	4.07142e-05	4.28046e-05	72.02
0.0710227	10362.9	30140	31871.7	-71.0258	200.584	-0.0167879	-1.18722e-06	74.3498	66.4897	1	14	0.0100237	3.14503e-07	1.02016e-05	2.9671e-05	3.13758e-05	71.0258
0.0479883	14631.6	40582.1	43139.2	-70.1736	288.215	-0.0167864	3.21295e-06	81.7241	72.3227	1	14	0.0100236	2.32355e-07	7.86227e-06	2.18067e-05	2.31808e-05	70.1736
0.0324439	21318.1	54478.7	58501.2	-68.6291	417.815	-0.0167911	-4.49438e-06	90.0451	78.0879	1	14	0.010023	1.7133e-07	6.22901e-06	1.59183e-05	1.70937e-05	68.6291
0.0219206	29799.8	70728.9	76750.3	-67.1531	609.616	-0.0167885	4.18968e-06	102.653	87.1776	1	14	0.0100227	1.30589e-07	5.05887e-06	1.20071e-05	1.30293e-05	67.1531
0.0148076	43419.7	96510	105827	-65.7771	893.534	-0.0167917	-8.31315e-06	111.369	92.6212	1	14	0.010023	9.47103e-08	3.87695e-06	8.61739e-06	9.44934e-06	65.7771
0.0100006	61074.7	124602	138765	-63.8878	1313.91	-0.0167816	-1.06339e-05	127.723	102.981	1	14	0.0100222	7.22244e-08	3.17178e-06	6.4709e-06	7.20644e-06	63.8878

File: 0708_01_EIS_0.5MTFSI_Blocking_OutsideGB_24hr_60C_overnight_C03.mpt
EC-Lab ASCII FILE
Nb header lines : 62

Potentio Electrochemical Impedance Spectroscopy

Run on channel : 3 (SN 35515)
User :
CE vs. WE compliance from -10 V to 10 V
Electrode connection : standard
Ewe ctrl range : min = -5.00 V, max = 5.00 V
Safety Limits :
	Do not start on E overload
Acquisition started on : 07/10/2023 07:23:23
Technique started on : 07/10/2023 07:23:25
Saved on :
	File : 0708_01_EIS_0.5MTFSI_Blocking_OutsideGB_24hr_60C_overnight_C03.mpr
	Directory : C:\Users\CESL\Documents\EC-Lab\Data\PhD\Leifer\Results\Zn Ion GPE\2023\0708\
	Host : 10.110.196.171
Device : VSP (SN 1724172417241724)
Address : USB
EC-Lab for windows v11.16 (software)
Internet server v11.16 (firmware)
Command interpretor v11.16 (firmware)
Electrode material : Au/Pd
Initial state :
Electrolyte : NaCl (0.2M)
Comments : Fe(CN)63-/Fe(CN)64- 5.10-3 M
Reference electrode : SCE Saturated Calomel Electrode (0.241 V)
Electrode surface area : 0.001 cm²
Characteristic mass : 0.001 g
Equivalent Weight : 0.000 g/eq.
Density : 0.000 g/cm3
Cycle Definition : Charge/Discharge alternance
Mode                Single sine
E (V)               0.0000
vs.                 Eoc
tE (h:m:s)          0:00:0.0000
record              0
dI                  0.000
unit dI             mA
dt (s)              0.000
fi                  1.000
unit fi             MHz
ff                  10.000
unit ff             mHz
Nd                  6
Points              per decade
spacing             Logarithmic
Va (mV)             10.0
pw                  0.10
Na                  2
corr                1
E range min (V)     -5.000
E range max (V)     5.000
I Range             Auto
Bandwidth           5
nc cycles           0
goto Ns'            0
nr cycles           0
inc. cycle          0

freq/Hz	Re(Z)/Ohm	-Im(Z)/Ohm	|Z|/Ohm	Phase(Z)/deg	time/s	<Ewe>/V	<I>/mA	Cs/µF	Cp/µF	cycle number	I Range	|Ewe|/V	|I|/A	Re(Y)/Ohm-1	Im(Y)/Ohm-1	|Y|/Ohm-1	Phase(Y)/deg
1.00002e+06	-58.4769	13.0089	59.9064	-167.458	2.63808	0.0277897	-0.00130994	0.0122341	0.000576905	1	11	0.000243891	4.07119e-06	-0.0162944	0.00362487	0.0166927	167.458
675752	32.31	-10.5834	33.9992	18.1366	3.0471	0.0271176	-0.00111265	-0.022254	-0.00215635	1	11	0.00118982	3.49956e-05	0.0279511	-0.00915559	0.0294124	-18.1366
456640	19.0517	-3.93451	19.4537	11.6686	4.33808	0.027129	0.00205331	-0.0885839	-0.00362353	1	10	0.00660083	0.00033931	0.0503418	-0.0103965	0.0514041	-11.6686
308574	15.9087	-2.07054	16.0429	7.41544	4.7471	0.026848	0.0021652	-0.249102	-0.00414934	1	10	0.0106507	0.00066389	0.0618116	-0.00804486	0.0623329	-7.41544
208525	14.7559	-1.19389	14.8041	4.62569	5.28808	0.0268476	0.00364774	-0.639288	-0.00415777	1	10	0.0101519	0.000685745	0.0673287	-0.00544753	0.0675487	-4.62569
140908	14.3037	-0.636679	14.3179	2.54864	5.82908	0.0268529	0.002913	-1.77404	-0.00350791	1	10	0.0101293	0.000707459	0.0697738	-0.00310573	0.0698429	-2.54864
95214.8	14.1304	-0.227554	14.1322	0.922605	6.2381	0.0268485	0.00288316	-7.34565	-0.00190449	1	10	0.0108461	0.000767469	0.070751	-0.00113937	0.0707602	-0.922605
64345.7	14.0403	0.107429	14.0407	-0.438389	6.64708	0.0268679	0.00312745	23.024	0.00134786	1	10	0.0106128	0.000755863	0.0712195	0.000544935	0.0712216	0.438389
43476.5	14.0288	0.44803	14.0359	-1.8292	7.05608	0.0268522	0.00372234	8.17067	0.00832511	1	10	0.0104035	0.000741207	0.0712094	0.00227418	0.0712457	1.8292
29384.8	14.0653	0.828095	14.0897	-3.3694	7.4651	0.0268604	0.00332886	6.54061	0.0225932	1	10	0.0102992	0.000730975	0.0708513	0.00417137	0.070974	3.3694
19853.5	14.1118	1.2793	14.1696	-5.17999	7.87409	0.0268507	0.00212977	6.26628	0.0510786	1	10	0.0100531	0.000709481	0.0702852	0.00637171	0.0705734	5.17999
13418	14.1959	1.93107	14.3267	-7.74641	8.1511	0.0268703	0.00313491	6.14235	0.111594	1	10	0.010694	0.000746438	0.0691629	0.00940824	0.0697999	7.74641
9082.03	14.3375	2.80081	14.6085	-11.0535	8.58833	0.0268721	0.00333818	6.25682	0.229991	1	10	0.0101277	0.000693275	0.0671834	0.0131242	0.0684533	11.0535
6140.96	14.5511	4.01866	15.0958	-15.4389	8.99164	0.026858	0.00136891	6.44915	0.457038	1	10	0.0102491	0.000678934	0.0638531	0.0176347	0.0662435	15.4389
4141.32	14.8853	5.7687	15.964	-21.1836	9.45769	0.0268959	0.00459508	6.66198	0.869913	1	10	0.0102869	0.000644383	0.0584082	0.0226358	0.062641	21.1836
2797.31	15.4065	8.20072	17.4532	-28.0258	9.92394	0.0268918	0.00408598	6.93788	1.53173	1	10	0.01028	0.000589002	0.0505774	0.0269217	0.0572961	28.0258
1890.6	16.1674	11.5621	19.8763	-35.5703	10.3877	0.0269002	0.00462865	7.28088	2.46368	1	10	0.0102339	0.000514878	0.0409232	0.0292661	0.0503112	35.5703
1287.12	17.3547	16.1651	23.717	-42.9675	10.8542	0.0268928	0.00400765	7.64934	3.55355	1	10	0.0102106	0.00043052	0.030853	0.0287382	0.0421639	42.9675
863.066	19.2487	22.7801	29.8236	-49.8028	11.3212	0.0268913	0.0039946	8.09508	4.72294	1	10	0.0101813	0.000341386	0.0216413	0.0256116	0.0335305	49.8028
583.692	22.0027	31.6627	38.5571	-55.2042	12.0402	0.0268718	0.000184809	8.61167	5.80732	1	11	0.010357	0.000268613	0.0148002	0.021298	0.0259356	55.2042
394.117	26.1881	43.7675	51.004	-59.106	12.5072	0.0268622	0.000195064	9.22663	6.7942	1	11	0.0102519	0.000201002	0.0100669	0.0168245	0.0196063	59.106
266.449	32.3014	59.9966	68.1394	-61.7025	12.9707	0.0268625	4.17829e-05	9.95585	7.71855	1	11	0.0102059	0.00014978	0.00695705	0.012922	0.0146758	61.7025
180.058	41.2193	81.5519	91.377	-63.1863	13.4357	0.0268614	0.000197299	10.8386	8.63315	1	11	0.0101656	0.000111249	0.0049366	0.00976699	0.0109437	63.1863
121.595	54.0594	109.99	122.557	-63.8262	13.8961	0.0268693	8.63479e-05	11.9001	9.58472	1	11	0.0101506	8.2823e-05	0.00359909	0.00732278	0.00815945	63.8262
82.2368	71.8577	147.194	163.798	-63.9792	14.3513	0.0268682	-1.95672e-05	13.1481	10.6177	1	11	0.0101411	6.19124e-05	0.0026783	0.00548625	0.0061051	63.9792
55.5152	96.5562	196.388	218.841	-63.8185	15.0639	0.0268649	-7.44127e-05	14.598	11.7562	1	12	0.0101846	4.65386e-05	0.00201615	0.0041007	0.00456953	63.8185
37.5601	130.724	258.118	289.333	-63.14	15.5557	0.0268699	1.61685e-05	16.4163	13.0652	1	12	0.0101597	3.51142e-05	0.00156156	0.00308335	0.00345623	63.14
25.3653	177.855	338.121	382.045	-62.2552	16.0149	0.0268634	-3.68966e-06	18.557	14.5353	1	12	0.0101468	2.65592e-05	0.00121853	0.00231656	0.00261749	62.2552
17.1327	238.414	440.527	500.904	-61.5777	16.4278	0.02686	-0.000398478	21.0874	16.3101	1	12	0.0101371	2.02377e-05	0.000950215	0.00175575	0.00199639	61.5777
11.5912	313.295	570.971	651.277	-61.2461	16.8373	0.0268538	-6.49415e-05	24.0478	18.483	1	12	0.0101468	1.55798e-05	0.000738622	0.00134612	0.00153544	61.2461
7.82815	418.456	732.65	843.731	-60.267	17.4193	0.0268644	-4.07579e-05	27.7501	20.9242	1	12	0.0101407	1.20189e-05	0.000587816	0.00102917	0.00118521	60.267
5.29302	542.454	947.073	1091.42	-60.1973	18.6827	0.0268655	2.65563e-06	31.7492	23.9064	1	13	0.0101462	9.29628e-06	0.000455383	0.000795056	0.000916235	60.1973
3.57551	698.918	1226.32	1411.51	-60.3199	19.8973	0.0268748	6.62014e-06	36.2975	27.3981	1	13	0.0101455	7.18771e-06	0.0003508	0.000615514	0.000708462	60.3199
2.41723	902.029	1588.4	1826.65	-60.4083	21.6736	0.0268699	7.19886e-07	41.4517	31.3436	1	13	0.0101439	5.55326e-06	0.000270339	0.000476044	0.00054745	60.4083
1.63271	1144.92	2067.35	2363.21	-61.0217	24.2845	0.0268721	-1.57678e-07	47.1518	36.0844	1	13	0.0101472	4.29382e-06	0.000205008	0.000370175	0.000423153	61.0217
1.10206	1461.66	2709.1	3078.26	-61.6515	29.9974	0.0268712	-6.46031e-07	53.3076	41.2885	1	14	0.0101491	3.29701e-06	0.000154254	0.0002859	0.000324859	61.6515
0.745609	1856.88	3564.13	4018.84	-62.4809	35.6682	0.0268699	1.10685e-06	59.8901	47.1044	1	14	0.0101481	2.52512e-06	0.00011497	0.000220675	0.000248828	62.4809
0.503902	2366.11	4727.17	5286.27	-63.4105	44.044	0.0268697	-1.93478e-06	66.8147	53.429	1	14	0.0101469	1.91948e-06	8.46712e-05	0.000169162	0.000189169	63.4105
0.340103	3000.67	6276.15	6956.58	-64.4472	56.4375	0.0268744	4.0466e-07	74.5618	60.6892	1	14	0.010145	1.45834e-06	6.20048e-05	0.000129688	0.000143749	64.4472
0.230213	3818.53	8396.08	9223.63	-65.544	74.7307	0.0268739	1.18846e-06	82.3406	68.2282	1	14	0.0101447	1.09986e-06	4.48841e-05	9.86899e-05	0.000108417	65.544
0.155473	4848.71	11291.4	12288.4	-66.7605	101.802	0.0268724	9.57511e-07	90.6609	76.5459	1	14	0.0101451	8.2558e-07	3.21096e-05	7.47748e-05	8.13776e-05	66.7605
0.105049	6232.5	15290.6	16512	-67.824	141.851	0.0268714	4.8765e-07	99.0838	84.9673	1	14	0.0101441	6.14348e-07	2.28592e-05	5.60821e-05	6.05619e-05	67.824
0.0710227	8010.79	20819	22307	-68.9541	201.072	0.026873	3.40101e-07	107.637	93.756	1	14	0.0101439	4.54738e-07	1.60987e-05	4.18385e-05	4.48289e-05	68.9541
0.0479883	10443.4	28417.1	30275.3	-69.8214	288.703	0.0268706	3.36062e-07	116.709	102.822	1	14	0.010144	3.35057e-07	1.13937e-05	3.10028e-05	3.30302e-05	69.8214
0.0324439	13699.2	39062.5	41395	-70.6743	418.302	0.0268698	4.32424e-07	125.582	111.828	1	14	0.0101461	2.45105e-07	7.99463e-06	2.27963e-05	2.41575e-05	70.6743
0.0219206	18267.7	53370	56409.8	-71.1048	610.103	0.0268695	3.58938e-07	136.041	121.774	1	14	0.0101457	1.79857e-07	5.74082e-06	1.67721e-05	1.77274e-05	71.1048
0.0148076	24683.7	73392.2	77431.9	-71.4109	894.021	0.0268729	4.02982e-07	146.449	131.566	1	14	0.0101445	1.31012e-07	4.1169e-06	1.22408e-05	1.29146e-05	71.4109
0.0100006	33650	100989	106447	-71.5716	1314.39	0.0268814	5.07088e-07	157.587	141.839	1	14	0.0101445	9.53004e-08	2.96972e-06	8.91257e-06	9.39431e-06	71.5716