Folder: PhD_Markup_Experiment/Python Codes/Alyssa_Old_Files/Functions.py/EIS Results/EIS_2023_07_08_Temp_In_Out_GB (part 8)

File: 0708_01_EIS_0.5MTFSI_Blocking_OutsideGB_Day_2_40C_C02.mpt
EC-Lab ASCII FILE
Nb header lines : 62

Potentio Electrochemical Impedance Spectroscopy

Run on channel : 2 (SN 35514)
User :
CE vs. WE compliance from -10 V to 10 V
Electrode connection : standard
Ewe ctrl range : min = -5.00 V, max = 5.00 V
Safety Limits :
	Do not start on E overload
Acquisition started on : 07/09/2023 15:25:50
Technique started on : 07/09/2023 15:25:51
Saved on :
	File : 0708_01_EIS_0.5MTFSI_Blocking_OutsideGB_Day_2_40C_C02.mpr
	Directory : C:\Users\CESL\Documents\EC-Lab\Data\PhD\Leifer\Results\Zn Ion GPE\2023\0708\
	Host : 10.110.196.171
Device : VSP (SN 1724172417241724)
Address : USB
EC-Lab for windows v11.16 (software)
Internet server v11.16 (firmware)
Command interpretor v11.16 (firmware)
Electrode material : Au/Pd
Initial state :
Electrolyte : NaCl (0.2M)
Comments : Fe(CN)63-/Fe(CN)64- 5.10-3 M
Reference electrode : SCE Saturated Calomel Electrode (0.241 V)
Electrode surface area : 0.001 cm²
Characteristic mass : 0.001 g
Equivalent Weight : 0.000 g/eq.
Density : 0.000 g/cm3
Cycle Definition : Charge/Discharge alternance
Mode                Single sine
E (V)               0.0000
vs.                 Eoc
tE (h:m:s)          0:00:0.0000
record              0
dI                  0.000
unit dI             mA
dt (s)              0.000
fi                  1.000
unit fi             MHz
ff                  10.000
unit ff             mHz
Nd                  6
Points              per decade
spacing             Logarithmic
Va (mV)             10.0
pw                  0.10
Na                  2
corr                1
E range min (V)     -5.000
E range max (V)     5.000
I Range             Auto
Bandwidth           5
nc cycles           0
goto Ns'            0
nr cycles           0
inc. cycle          0

freq/Hz	Re(Z)/Ohm	-Im(Z)/Ohm	|Z|/Ohm	Phase(Z)/deg	time/s	<Ewe>/V	<I>/mA	Cs/µF	Cp/µF	cycle number	I Range	|Ewe|/V	|I|/A	Re(Y)/Ohm-1	Im(Y)/Ohm-1	|Y|/Ohm-1	Phase(Y)/deg
1.00002e+06	0.204046	4.28161	4.28647	-87.2716	1.97509	-0.0143452	0.0128422	0.037171	0.0370868	1	9	0.000191363	4.46436e-05	0.0111053	0.233028	0.233292	87.2716
675752	35.3371	-11.2995	37.0997	17.7324	2.67809	-0.0152342	-0.00079211	-0.0208437	-0.00193353	1	10	0.00108524	2.92519e-05	0.0256738	-0.00820953	0.0269544	-17.7324
456640	13.4647	-2.78392	13.7495	11.6817	3.0871	-0.0152455	0.00108917	-0.125195	-0.00513249	1	10	0.00411056	0.00029896	0.0712234	-0.0147259	0.0727298	-11.6817
308574	10.5448	-1.27923	10.6222	6.91696	3.4961	-0.0155016	0.0011358	-0.403191	-0.0058477	1	10	0.00992733	0.000934588	0.0934577	-0.0113377	0.0941429	-6.91696
208525	9.57083	-0.553997	9.58685	3.31281	4.0371	-0.015521	0.00174362	-1.3777	-0.00460062	1	10	0.0101676	0.00106058	0.104135	-0.00602775	0.104309	-3.31281
140908	9.19905	-0.0711728	9.19932	0.443287	4.57809	-0.0155064	0.00242229	-15.8698	-0.000949918	1	10	0.0101535	0.00110372	0.1087	-0.000841012	0.108704	-0.443287
95214.8	9.07892	0.393073	9.08743	-2.47908	5.1191	-0.0154772	0.002385	4.25248	0.00795622	1	10	0.0101002	0.00111145	0.109939	0.00475983	0.110042	2.47908
64345.7	9.07123	0.861446	9.11204	-5.4248	5.52808	-0.0154795	0.00323148	2.87126	0.0256624	1	10	0.0106374	0.0011674	0.109253	0.0103752	0.109745	5.4248
43476.5	9.13361	1.4159	9.2427	-8.8119	5.9371	-0.0154627	0.00279146	2.58543	0.0606736	1	10	0.0104969	0.0011357	0.106916	0.0165743	0.108193	8.8119
29384.8	9.25523	2.10357	9.49127	-12.8049	6.3461	-0.0154762	0.00262179	2.57479	0.126475	1	10	0.0103953	0.00109525	0.10274	0.0233511	0.10536	12.8049
19853.5	9.40329	3.02489	9.87784	-17.8322	6.75508	-0.0154699	0.00334522	2.65017	0.248524	1	10	0.0102413	0.0010368	0.096373	0.0310017	0.101237	17.8322
13418	9.57996	4.29674	10.4994	-24.1569	7.1641	-0.0154625	0.00345522	2.76055	0.46232	1	10	0.0100609	0.000958232	0.0869029	0.0389771	0.0952435	24.1569
9082.03	9.79092	6.1217	11.5472	-32.0153	7.46133	-0.0154415	0.00476036	2.86263	0.804558	1	10	0.0103064	0.000892543	0.0734297	0.0459113	0.0866012	32.0153
6140.96	10.0563	8.78986	13.3563	-41.1557	7.86464	-0.0154688	0.00168208	2.94851	1.27701	1	10	0.010247	0.000767205	0.0563723	0.0492732	0.0748712	41.1557
4141.32	10.4295	12.6705	16.4109	-50.5411	8.3307	-0.0154315	0.00480324	3.03309	1.80805	1	10	0.010078	0.000614104	0.0387257	0.0470468	0.0609351	50.5411
2797.31	10.9482	18.3247	21.3462	-59.1435	8.79695	-0.0154393	0.0039176	3.10486	2.28811	1	10	0.00993243	0.000465303	0.0240273	0.0402159	0.0468468	59.1435
1890.6	11.7555	26.5318	29.0195	-66.1032	9.2617	-0.0154394	0.00499527	3.17287	2.65221	1	10	0.00983988	0.000339079	0.0139593	0.0315056	0.0344596	66.1032
1287.12	12.8433	37.9863	40.0987	-71.3194	9.98022	-0.0154623	0.000193804	3.25518	2.92124	1	11	0.0102435	0.000255456	0.00798759	0.0236247	0.0249384	71.3194
863.066	14.5294	55.3527	57.2278	-75.2923	10.4472	-0.0154589	0.000188767	3.33148	3.11674	1	11	0.00997047	0.000174224	0.00443643	0.0169015	0.017474	75.2923
583.692	16.9383	79.8925	81.6683	-78.0298	10.9142	-0.0154615	0.000180933	3.41295	3.26614	1	11	0.00983478	0.000120423	0.00253958	0.0119784	0.0122446	78.0298
394.117	20.5827	115.516	117.335	-79.897	11.3812	-0.0154594	0.000178694	3.49585	3.38828	1	11	0.0097712	8.32759e-05	0.00149502	0.00839044	0.00852259	79.897
266.449	26.1228	166.773	168.807	-81.0977	11.8447	-0.0154677	0.000264668	3.58162	3.49585	1	11	0.00974473	5.77272e-05	0.000916728	0.00585258	0.00592394	81.0977
180.058	34.2548	240.953	243.375	-81.9088	12.3097	-0.0154587	0.000245272	3.6684	3.59573	1	11	0.00973008	3.99797e-05	0.000578319	0.00406797	0.00410888	81.9088
121.595	47.0897	348.065	351.236	-82.2952	13.0191	-0.0154596	-2.24208e-05	3.76048	3.69288	1	12	0.00977586	2.78327e-05	0.000381705	0.00282138	0.00284709	82.2952
82.2368	65.9439	502.694	507.001	-82.5266	13.4743	-0.0154606	-0.000114383	3.84991	3.78478	1	12	0.00974609	1.9223e-05	0.000256542	0.00195563	0.00197238	82.5266
55.5152	101.35	722.977	730.046	-82.02	13.9369	-0.0154597	-0.000108677	3.96537	3.88895	1	12	0.00972919	1.33268e-05	0.000190162	0.00135651	0.00136978	82.02
37.5601	150.007	1039.19	1049.96	-81.7861	14.4288	-0.0154451	-3.81864e-05	4.07754	3.99431	1	12	0.00972675	9.2639e-06	0.000136071	0.000942644	0.000952415	81.7861
25.3653	222.067	1471.55	1488.21	-81.4184	14.8879	-0.0154643	-2.3018e-05	4.26389	4.16895	1	12	0.0097222	6.53282e-06	0.000100267	0.000664425	0.000671948	81.4184
17.1327	379.617	2106.31	2140.25	-79.7834	15.5298	-0.0154716	-7.42578e-06	4.41034	4.27159	1	13	0.00972621	4.54443e-06	8.28736e-05	0.000459827	0.000467235	79.7834
11.5912	590.57	2977.27	3035.28	-78.7805	15.9393	-0.0154721	-6.23433e-06	4.61181	4.43722	1	13	0.00972664	3.20453e-06	6.41023e-05	0.000323162	0.000329459	78.7805
7.82815	919.686	4161.83	4262.23	-77.539	16.5203	-0.0154532	-2.86032e-06	4.88514	4.65769	1	13	0.00972401	2.28143e-06	5.0625e-05	0.000229092	0.000234619	77.539
5.29302	1386.3	5773.26	5937.37	-76.4975	17.3567	-0.0154514	-6.55007e-06	5.20829	4.92435	1	13	0.00972103	1.63726e-06	3.93251e-05	0.000163769	0.000168425	76.4975
3.57551	2054.54	8045.72	8303.9	-75.6752	19.1794	-0.0154479	-1.07954e-06	5.53244	5.19376	1	14	0.00972582	1.17123e-06	2.97955e-05	0.000116681	0.000120425	75.6752
2.41723	3002.45	11075.7	11475.4	-74.8325	20.9566	-0.0154516	2.61196e-06	5.94473	5.53777	1	14	0.00972351	8.47334e-07	2.28002e-05	8.41072e-05	8.71429e-05	74.8325
1.63271	4304.53	15265.2	15860.5	-74.2524	23.5664	-0.015451	9.68724e-07	6.38573	5.91537	1	14	0.00972075	6.12892e-07	1.71117e-05	6.06833e-05	6.30498e-05	74.2524
1.10206	6310.98	21101.7	22025.2	-73.3494	27.4154	-0.0154484	9.66259e-07	6.84382	6.28193	1	14	0.00972055	4.41338e-07	1.30094e-05	4.34989e-05	4.54026e-05	73.3494
0.745609	9159.23	28973.3	30386.6	-72.4569	33.0872	-0.0154516	9.93158e-07	7.36734	6.69797	1	14	0.00971928	3.19854e-07	9.91962e-06	3.13787e-05	3.29093e-05	72.4569
0.503902	13791.7	39695.2	42022.9	-70.8407	41.463	-0.0154574	2.037e-06	7.95675	7.09971	1	14	0.00971858	2.31269e-07	7.80994e-06	2.24785e-05	2.37966e-05	70.8407
0.340103	20404.7	53651.2	57400.3	-69.1771	53.8563	-0.0154545	1.38373e-06	8.7223	7.6201	1	14	0.0097182	1.69306e-07	6.193e-06	1.62836e-05	1.74215e-05	69.1771
0.230213	30803.2	71504.6	77857.2	-66.6943	72.1495	-0.0154531	1.19059e-06	9.66845	8.15506	1	14	0.00971739	1.2481e-07	5.08158e-06	1.1796e-05	1.2844e-05	66.6943
0.155473	45735	93616	104190	-63.9627	99.2208	-0.0154541	1.37387e-06	10.9349	8.82796	1	14	0.00971839	9.32752e-08	4.21302e-06	8.62371e-06	9.59781e-06	63.9627
0.105049	67079.7	119460	137005	-60.6847	139.269	-0.0154548	1.35509e-06	12.6825	9.64223	1	14	0.00971761	7.09289e-08	3.5737e-06	6.36428e-06	7.299e-06	60.6847
0.0710227	95703.1	148835	176949	-57.2584	198.49	-0.0154566	1.479e-06	15.0563	10.652	1	14	0.009719	5.49254e-08	3.05654e-06	4.75345e-06	5.65135e-06	57.2584
0.0479883	132311	181083	224271	-53.8457	286.121	-0.0154622	1.58437e-06	18.315	11.9404	1	14	0.009718	4.33316e-08	2.63058e-06	3.60025e-06	4.4589e-06	53.8457
0.0324439	176880	215440	278749	-50.6134	415.721	-0.0154608	1.7503e-06	22.7699	13.6015	1	14	0.00971738	3.48607e-08	2.27642e-06	2.77268e-06	3.58746e-06	50.6134
0.0219206	227107	252725	339776	-48.0561	607.523	-0.0154617	1.77176e-06	28.7289	15.8939	1	14	0.00971715	2.85987e-08	1.96719e-06	2.18909e-06	2.94311e-06	48.0561
0.0148076	284165	292572	407858	-45.8351	891.44	-0.0154673	1.84651e-06	36.7369	18.9038	1	14	0.00971943	2.38304e-08	1.70826e-06	1.75879e-06	2.45184e-06	45.8351
0.0100006	347776	345239	490039	-44.7903	1311.81	-0.015467	1.89726e-06	46.0969	22.8798	1	14	0.00971742	1.98299e-08	1.44823e-06	1.43767e-06	2.04065e-06	44.7903

File: 0708_01_EIS_0.5MTFSI_Blocking_OutsideGB_Day_2_60C_C02.mpt
EC-Lab ASCII FILE
Nb header lines : 62

Potentio Electrochemical Impedance Spectroscopy

Run on channel : 2 (SN 35514)
User :
CE vs. WE compliance from -10 V to 10 V
Electrode connection : standard
Ewe ctrl range : min = -5.00 V, max = 5.00 V
Safety Limits :
	Do not start on E overload
Acquisition started on : 07/09/2023 15:55:52
Technique started on : 07/09/2023 15:55:53
Saved on :
	File : 0708_01_EIS_0.5MTFSI_Blocking_OutsideGB_Day_2_60C_C02.mpr
	Directory : C:\Users\CESL\Documents\EC-Lab\Data\PhD\Leifer\Results\Zn Ion GPE\2023\0708\
	Host : 10.110.196.171
Device : VSP (SN 1724172417241724)
Address : USB
EC-Lab for windows v11.16 (software)
Internet server v11.16 (firmware)
Command interpretor v11.16 (firmware)
Electrode material : Au/Pd
Initial state :
Electrolyte : NaCl (0.2M)
Comments : Fe(CN)63-/Fe(CN)64- 5.10-3 M
Reference electrode : SCE Saturated Calomel Electrode (0.241 V)
Electrode surface area : 0.001 cm²
Characteristic mass : 0.001 g
Equivalent Weight : 0.000 g/eq.
Density : 0.000 g/cm3
Cycle Definition : Charge/Discharge alternance
Mode                Single sine
E (V)               0.0000
vs.                 Eoc
tE (h:m:s)          0:00:0.0000
record              0
dI                  0.000
unit dI             mA
dt (s)              0.000
fi                  1.000
unit fi             MHz
ff                  10.000
unit ff             mHz
Nd                  6
Points              per decade
spacing             Logarithmic
Va (mV)             10.0
pw                  0.10
Na                  2
corr                1
E range min (V)     -5.000
E range max (V)     5.000
I Range             Auto
Bandwidth           5
nc cycles           0
goto Ns'            0
nr cycles           0
inc. cycle          0

freq/Hz	Re(Z)/Ohm	-Im(Z)/Ohm	|Z|/Ohm	Phase(Z)/deg	time/s	<Ewe>/V	<I>/mA	Cs/µF	Cp/µF	cycle number	I Range	|Ewe|/V	|I|/A	Re(Y)/Ohm-1	Im(Y)/Ohm-1	|Y|/Ohm-1	Phase(Y)/deg
1.00002e+06	0.348662	3.50388	3.52119	-84.3174	1.97409	-0.0207036	-0.0003703	0.0454216	0.0449762	1	9	0.000112458	3.19375e-05	0.0281207	0.282599	0.283995	84.3174
675752	17.3547	-9.62836	19.8467	29.0215	2.67709	-0.0214852	-0.00928486	-0.0244614	-0.00575719	1	10	0.000597426	3.01021e-05	0.0440597	-0.0244443	0.0503863	-29.0215
456640	6.9094	-2.54461	7.36307	20.2179	3.08609	-0.0214831	-0.0074129	-0.136969	-0.0163587	1	10	0.00225016	0.0003056	0.127445	-0.0469358	0.135813	-20.2179
308574	5.46724	-1.19454	5.59622	12.3248	3.4951	-0.0217385	-0.00825936	-0.431779	-0.019673	1	10	0.00608392	0.00108715	0.174574	-0.0381426	0.178692	-12.3248
208525	4.99519	-0.531085	5.02335	6.06885	3.90409	-0.0217915	-0.003751	-1.43713	-0.0160635	1	10	0.0104243	0.00207516	0.197955	-0.0210464	0.19907	-6.06885
140908	4.81367	-0.0811473	4.81436	0.965782	4.44508	-0.0217656	-0.00413508	-13.9191	-0.00395441	1	10	0.0101593	0.0021102	0.207683	-0.00350104	0.207712	-0.965782
95214.8	4.76721	0.322728	4.77812	-3.87287	4.9861	-0.0217376	-0.0040344	5.17939	0.0236286	1	10	0.0101338	0.00212087	0.208809	0.0141359	0.209287	3.87287
64345.7	4.78939	0.737522	4.84585	-8.75425	5.39509	-0.0217365	-0.00307046	3.35371	0.0776849	1	10	0.0107712	0.00222276	0.203958	0.0314077	0.206362	8.75425
43476.5	4.85424	1.21234	5.00334	-14.0227	5.80409	-0.0217268	-0.00337065	3.01954	0.177284	1	10	0.0107736	0.00215328	0.193911	0.0484289	0.199867	14.0227
29384.8	4.95334	1.81572	5.27564	-20.1312	6.21308	-0.0217173	-0.00267333	2.98297	0.353343	1	10	0.0106147	0.00201201	0.17797	0.0652376	0.18955	20.1312
19853.5	5.07926	2.63127	5.72036	-27.386	6.62209	-0.0217403	-0.00350303	3.04661	0.644617	1	10	0.0104977	0.00183515	0.155222	0.0804117	0.174814	27.386
13418	5.222	3.76576	6.43819	-35.7967	7.03109	-0.0217144	-0.00240859	3.14978	1.0776	1	10	0.0102234	0.00158792	0.125982	0.0908501	0.155323	35.7967
9082.03	5.39803	5.39257	7.63011	-44.971	7.32834	-0.0216972	0.00234772	3.24968	1.6232	1	10	0.0103485	0.00135627	0.0927201	0.0926264	0.13106	44.971
6140.96	5.63663	7.77557	9.6037	-54.0611	7.73164	-0.0217156	0.00141547	3.33312	2.18494	1	10	0.00990765	0.00103165	0.0611142	0.0843053	0.104126	54.0611
4141.32	5.9741	11.225	12.7158	-61.9775	8.19767	-0.0216763	0.00565158	3.42369	2.66798	1	10	0.00948608	0.00074601	0.0369478	0.0694228	0.0786426	61.9775
2797.31	6.48305	16.2283	17.4754	-68.2238	8.66396	-0.021673	0.00600583	3.50595	3.02343	1	10	0.00924207	0.000528863	0.0212289	0.05314	0.0572234	68.2238
1890.6	7.21118	23.3955	24.4817	-72.8692	9.12867	-0.0216765	0.00516307	3.59821	3.28602	1	10	0.00910117	0.000371754	0.0120316	0.0390347	0.0408469	72.8692
1287.12	8.20856	33.5711	34.5601	-76.26	9.8472	-0.0216933	-9.13464e-05	3.6833	3.47551	1	11	0.00955857	0.000276578	0.00687255	0.0281071	0.0289351	76.26
863.066	9.79644	48.8837	49.8556	-78.6679	10.3142	-0.0216886	-5.79657e-05	3.77235	3.6267	1	11	0.00924625	0.000185461	0.00394131	0.0196669	0.0200579	78.6679
583.692	12.1114	70.407	71.4411	-80.2395	10.7812	-0.0216981	-0.000120258	3.87276	3.76145	1	11	0.0090906	0.000127246	0.002373	0.0137949	0.0139975	80.2395
394.117	15.5718	101.819	103.003	-81.3048	11.2482	-0.0216915	-2.73831e-05	3.9661	3.87546	1	11	0.00902939	8.76611e-05	0.0014677	0.00959684	0.00970842	81.3048
266.449	21.0022	146.788	148.282	-81.8574	11.7116	-0.0216934	-8.76221e-05	4.06927	3.98763	1	11	0.00899546	6.06644e-05	0.000955182	0.0066759	0.00674389	81.8574
180.058	29.5347	211.065	213.121	-82.0342	12.3987	-0.0216964	-0.000154201	4.18787	4.10744	1	11	0.0098558	4.62451e-05	0.000650249	0.00464689	0.00469217	82.0342
121.595	42.9901	305.459	308.469	-81.9889	13.1081	-0.0216917	-2.95807e-05	4.285	4.20177	1	12	0.00991552	3.21443e-05	0.000451798	0.00321018	0.00324181	81.9889
82.2368	63.753	438.662	443.271	-81.7308	13.5633	-0.0216846	-8.72715e-05	4.41188	4.32062	1	12	0.00987929	2.22873e-05	0.000324461	0.0022325	0.00225596	81.7308
55.5152	101.073	626.241	634.345	-80.8317	14.0249	-0.0216903	-5.37649e-05	4.5779	4.46168	1	12	0.00985353	1.55334e-05	0.00025118	0.00155629	0.00157643	80.8317
37.5601	154.898	892.046	905.394	-80.1492	14.5158	-0.0216846	-5.39328e-05	4.75014	4.61111	1	12	0.00984999	1.08792e-05	0.00018896	0.00108821	0.00110449	80.1492
25.3653	256.358	1273.78	1299.32	-78.6208	14.9749	-0.0216907	-8.08204e-05	4.92593	4.73417	1	12	0.00985007	7.58096e-06	0.00015185	0.000754506	0.000769635	78.6208
17.1327	401.325	1774.15	1818.98	-77.2538	15.6158	-0.0216968	-1.95197e-05	5.23606	4.98118	1	13	0.00985902	5.42009e-06	0.000121295	0.000536212	0.00054976	77.2538
11.5912	634.194	2467.33	2547.54	-75.585	16.0253	-0.0216991	-4.07321e-06	5.56496	5.22008	1	13	0.00984898	3.86608e-06	9.77195e-05	0.000380178	0.000392536	75.585
7.82815	995.759	3391.78	3534.93	-73.6388	16.6063	-0.0216888	-4.67925e-06	5.99422	5.51858	1	13	0.00984547	2.78519e-06	7.96879e-05	0.000271435	0.000282891	73.6388
5.29302	1508.06	4595.12	4836.25	-71.8308	17.4427	-0.0216883	-2.10665e-06	6.54365	5.90738	1	13	0.00984445	2.03555e-06	6.44765e-05	0.000196462	0.000206772	71.8308
3.57551	2343.87	6235.08	6661.07	-69.3979	18.6574	-0.0216839	-3.68339e-05	7.13904	6.25511	1	13	0.00984514	1.47801e-06	5.28256e-05	0.000140525	0.000150126	69.3979
2.41723	3327.37	8259.86	8904.87	-68.0586	21.3106	-0.0216835	4.88119e-06	7.9713	6.85834	1	14	0.00984786	1.1059e-06	4.19611e-05	0.000104164	0.000112298	68.0586
1.63271	4840.4	10942.4	11965.2	-66.1377	23.9204	-0.0216812	4.84178e-06	8.90841	7.45052	1	14	0.00984651	8.22931e-07	3.38098e-05	7.64318e-05	8.35759e-05	66.1377
1.10206	6980.17	14279.6	15894.3	-63.9496	27.7694	-0.0216835	4.67658e-06	10.1135	8.16295	1	14	0.00984368	6.19321e-07	2.76301e-05	5.65239e-05	6.29156e-05	63.9496
0.745609	9993.38	18388.6	20928.6	-61.4778	33.4417	-0.0216851	5.05181e-06	11.6081	8.9614	1	14	0.00984329	4.70327e-07	2.28156e-05	4.19824e-05	4.77815e-05	61.4778
0.503902	13951.4	23064.9	26956.1	-58.8313	41.8176	-0.021684	1.14938e-05	13.6938	10.0256	1	14	0.00984294	3.65148e-07	1.92001e-05	3.17423e-05	3.70974e-05	58.8313
0.340103	19484.6	28223.4	34295.9	-55.38	54.211	-0.0216854	6.77031e-06	16.5806	11.2288	1	14	0.00984311	2.87006e-07	1.65656e-05	2.39952e-05	2.9158e-05	55.38
0.230213	25860.2	33459.1	42287.8	-52.3	72.5043	-0.0216575	7.8728e-06	20.6622	12.9352	1	14	0.00984286	2.32759e-07	1.44611e-05	1.87104e-05	2.36475e-05	52.3
0.155473	33324	38936.1	51249.5	-49.441	99.5756	-0.0216626	8.66936e-06	26.2914	15.1754	1	14	0.00984296	1.9206e-07	1.26876e-05	1.48243e-05	1.95124e-05	49.441
0.105049	41230.1	44555.4	60705	-47.2199	139.625	-0.0216716	1.00228e-05	34.0038	18.318	1	14	0.00984267	1.62139e-07	1.11883e-05	1.20907e-05	1.64731e-05	47.2199
0.0710227	48792.7	50138.4	69961.4	-45.7793	198.846	-0.0216698	1.03478e-05	44.6943	22.955	1	14	0.00984194	1.40677e-07	9.9687e-06	1.02436e-05	1.42936e-05	45.7793
0.0479883	57187.6	58513.9	81818.7	-45.6568	286.477	-0.021672	1.03657e-05	56.6795	28.9894	1	14	0.00984291	1.20302e-07	8.54274e-06	8.74086e-06	1.22222e-05	45.6568
0.0324439	66450.3	69484.7	96144.5	-46.2788	416.077	-0.0216711	8.75112e-06	70.5988	36.8746	1	14	0.00984316	1.02379e-07	7.18866e-06	7.51692e-06	1.0401e-05	46.2788
0.0219206	78054.3	85798.6	115991	-47.706	607.878	-0.0216731	7.5409e-06	84.6229	46.3021	1	14	0.00984239	8.48549e-08	5.80162e-06	6.37724e-06	8.62137e-06	47.706
0.0148076	93492.4	108459	143193	-49.2384	891.797	-0.0216762	5.88157e-06	99.0992	56.8536	1	14	0.00984365	6.87441e-08	4.55968e-06	5.2896e-06	6.9836e-06	49.2384
0.0100006	114416	139777	180634	-50.6975	1312.17	-0.0216774	3.65367e-06	113.856	68.1755	1	14	0.00984296	5.44911e-08	3.50661e-06	4.28386e-06	5.53605e-06	50.6975