Folder: PhD_Markup_Experiment/Python Codes/Alyssa_Old_Files/Functions.py/EIS Results/EIS_2023_07_08_Temp_In_Out_GB (part 7)

File: 0708_01_EIS_0.5MTFSI_Blocking_OutsideGB_24hr_RT_C03.mpt
EC-Lab ASCII FILE
Nb header lines : 62

Potentio Electrochemical Impedance Spectroscopy

Run on channel : 3 (SN 35515)
User :
CE vs. WE compliance from -10 V to 10 V
Electrode connection : standard
Ewe ctrl range : min = -5.00 V, max = 5.00 V
Safety Limits :
	Do not start on E overload
Acquisition started on : 07/09/2023 14:50:27
Technique started on : 07/09/2023 14:50:29
Saved on :
	File : 0708_01_EIS_0.5MTFSI_Blocking_OutsideGB_24hr_RT_C03.mpr
	Directory : C:\Users\CESL\Documents\EC-Lab\Data\PhD\Leifer\Results\Zn Ion GPE\2023\0708\
	Host : 10.110.196.171
Device : VSP (SN 1724172417241724)
Address : USB
EC-Lab for windows v11.16 (software)
Internet server v11.16 (firmware)
Command interpretor v11.16 (firmware)
Electrode material : Au/Pd
Initial state :
Electrolyte : NaCl (0.2M)
Comments : Fe(CN)63-/Fe(CN)64- 5.10-3 M
Reference electrode : SCE Saturated Calomel Electrode (0.241 V)
Electrode surface area : 0.001 cm²
Characteristic mass : 0.001 g
Equivalent Weight : 0.000 g/eq.
Density : 0.000 g/cm3
Cycle Definition : Charge/Discharge alternance
Mode                Single sine
E (V)               0.0000
vs.                 Eoc
tE (h:m:s)          0:00:0.0000
record              0
dI                  0.000
unit dI             mA
dt (s)              0.000
fi                  1.000
unit fi             MHz
ff                  10.000
unit ff             mHz
Nd                  6
Points              per decade
spacing             Logarithmic
Va (mV)             10.0
pw                  0.10
Na                  2
corr                1
E range min (V)     -5.000
E range max (V)     5.000
I Range             Auto
Bandwidth           5
nc cycles           0
goto Ns'            0
nr cycles           0
inc. cycle          0

freq/Hz	Re(Z)/Ohm	-Im(Z)/Ohm	|Z|/Ohm	Phase(Z)/deg	time/s	<Ewe>/V	<I>/mA	Cs/µF	Cp/µF	cycle number	I Range	|Ewe|/V	|I|/A	Re(Y)/Ohm-1	Im(Y)/Ohm-1	|Y|/Ohm-1	Phase(Y)/deg
1.00002e+06	168.511	3.72081	168.552	-1.26492	2.4871	-0.021106	-0.00130285	0.0427734	2.0844e-05	1	11	0.000518704	3.07741e-06	0.00593144	0.000130969	0.00593289	1.26492
675752	75.6026	-13.4173	76.7839	10.0636	2.8961	-0.0217601	-0.000668295	-0.0175536	-0.000535992	1	11	0.00251439	3.27464e-05	0.0128232	-0.00227575	0.0130236	-10.0636
456640	42.9276	-5.71485	43.3063	7.58307	3.30508	-0.0217496	-0.000639388	-0.0609875	-0.00106206	1	11	0.0074939	0.000173044	0.0228894	-0.00304721	0.0230913	-7.58307
308574	35.8178	-3.32238	35.9716	5.29946	3.71409	-0.0220298	-0.00074157	-0.155243	-0.00132431	1	11	0.0104552	0.000290652	0.0276809	-0.00256761	0.0277997	-5.29946
208525	33.1684	-2.07454	33.2333	3.57894	4.25509	-0.0220477	-0.000451425	-0.367908	-0.00143363	1	11	0.0100644	0.00030284	0.0300317	-0.00187835	0.0300903	-3.57894
140908	31.9597	-0.744412	31.9684	1.3343	4.95809	-0.021985	0.00315542	-1.5173	-0.000822727	1	10	0.00927551	0.000290146	0.0312724	-0.000728403	0.0312809	-1.3343
95214.8	31.4217	-0.233309	31.4226	0.425418	5.36708	-0.0219802	0.00340344	-7.16448	-0.00039497	1	10	0.010421	0.00033164	0.0318234	-0.000236291	0.0318243	-0.425418
64345.7	31.2303	0.159268	31.2307	-0.292194	5.77609	-0.0219869	0.00366265	15.53	0.000403892	1	10	0.0103681	0.000331983	0.0320193	0.000163292	0.0320198	0.292194
43476.5	31.0666	0.515594	31.0709	-0.950816	6.18509	-0.0219976	0.00321136	7.09998	0.00195508	1	10	0.0102865	0.000331065	0.03218	0.000534072	0.0321845	0.950816
29384.8	31.0959	0.894032	31.1087	-1.64685	6.59408	-0.0219805	0.00294842	6.05822	0.00500365	1	10	0.0101624	0.000326674	0.0321321	0.000923823	0.0321453	1.64685
19853.5	31.1654	1.37903	31.1958	-2.53361	6.87109	-0.0219862	0.00300437	5.81313	0.0113596	1	10	0.0109227	0.000350134	0.0320242	0.00141703	0.0320556	2.53361
13418	31.2414	2.08439	31.3108	-3.81705	7.28009	-0.0219957	0.00318899	5.69056	0.0252187	1	10	0.0101162	0.000323088	0.031867	0.00212613	0.0319378	3.81705
9082.03	31.297	3.0473	31.445	-5.56119	7.57733	-0.0219964	0.00235913	5.75072	0.0540068	1	10	0.0102926	0.000327321	0.0316519	0.00308185	0.0318016	5.56119
6140.96	31.4974	4.30731	31.7906	-7.78696	7.98063	-0.0220126	-0.000384045	6.01697	0.110457	1	10	0.0103743	0.000326333	0.0311658	0.00426195	0.0314558	7.78696
4141.32	31.7408	6.21413	32.3433	-11.0771	8.44669	-0.0219796	0.00141739	6.18445	0.228292	1	10	0.01041	0.000321858	0.0303422	0.00594033	0.0309183	11.0771
2797.31	32.0589	8.91737	33.276	-15.5442	8.91294	-0.0219774	0.00131109	6.38032	0.458198	1	10	0.0104215	0.000313185	0.0289525	0.00805331	0.0300517	15.5442
1890.6	32.804	12.8005	35.213	-21.3162	9.63068	-0.0219984	0.000345546	6.57649	0.869039	1	11	0.0106891	0.000303557	0.0264558	0.0103233	0.0283986	21.3162
1287.12	33.8809	18.1139	38.4191	-28.1306	10.0972	-0.0219964	0.000325967	6.82636	1.51747	1	11	0.0106647	0.000277587	0.0229541	0.0122721	0.0260287	28.1306
863.066	35.5893	25.9465	44.0434	-36.0941	10.5642	-0.0220054	0.000450528	7.10717	2.46657	1	11	0.0106073	0.000240839	0.0183467	0.0133758	0.0227049	36.0941
583.692	37.9601	36.5915	52.7248	-43.9483	11.0312	-0.0220019	0.000304708	7.45172	3.58911	1	11	0.0105299	0.000199714	0.0136552	0.0131629	0.0189664	43.9483
394.117	41.6588	51.441	66.1939	-50.9982	11.4982	-0.0219965	0.000408943	7.85029	4.74098	1	11	0.010472	0.000158202	0.0095076	0.0117401	0.0151071	50.9982
266.449	47.3097	71.7391	85.9343	-56.5964	11.9616	-0.0220058	0.000358036	8.32625	5.80267	1	11	0.010442	0.000121511	0.00640644	0.00971455	0.0116368	56.5964
180.058	55.8414	99.5557	114.147	-60.7117	12.4267	-0.0220021	0.000340507	8.87856	6.75373	1	11	0.0104156	9.12474e-05	0.00428574	0.00764073	0.00876061	60.7117
121.595	68.3609	137.532	153.585	-63.5701	12.8871	-0.0220055	0.000314773	9.51699	7.63152	1	11	0.0104087	6.7772e-05	0.00289809	0.00583053	0.00651107	63.5701
82.2368	85.0932	188.526	206.84	-65.7075	13.3423	-0.0219967	0.000267596	10.2656	8.52815	1	11	0.0104009	5.02847e-05	0.00198895	0.00440657	0.00483465	65.7075
55.5152	108.779	258.663	280.606	-67.1911	14.0549	-0.0220096	-0.000102382	11.0834	9.41781	1	12	0.010424	3.71482e-05	0.00138151	0.00328505	0.00356372	67.1911
37.5601	143.586	352.598	380.713	-67.8427	14.5468	-0.0220043	-2.54027e-05	12.0175	10.3081	1	12	0.0104124	2.73497e-05	0.000990643	0.00243268	0.00262665	67.8427
25.3653	191.24	479.319	516.062	-68.2488	15.0059	-0.0220043	-6.23495e-05	13.0905	11.2928	1	12	0.0104012	2.0155e-05	0.000718086	0.00179979	0.00193775	68.2488
17.1327	251.978	650.098	697.224	-68.8137	15.4188	-0.0220101	-0.000176294	14.2895	12.4231	1	12	0.0104016	1.49186e-05	0.000518345	0.00133732	0.00143426	68.8137
11.5912	342.063	877.364	941.687	-68.7004	15.8283	-0.0220133	-0.000168295	15.6499	13.5849	1	12	0.0104005	1.10445e-05	0.000385739	0.000989387	0.00106192	68.7004
7.82815	455.972	1188.66	1273.11	-69.0131	16.7173	-0.0220084	-4.87911e-06	17.1042	14.9102	1	13	0.0104081	8.1753e-06	0.000281321	0.000733369	0.000785475	69.0131
5.29302	612.404	1605.98	1718.78	-69.1268	17.5537	-0.0220033	-1.08523e-05	18.723	16.3461	1	13	0.0104019	6.05192e-06	0.000207298	0.000543624	0.000581807	69.1268
3.57551	809.383	2175.85	2321.51	-69.5956	18.7683	-0.0219965	-3.90507e-06	20.4575	17.9708	1	13	0.0104005	4.48005e-06	0.00015018	0.000403726	0.000430753	69.5956
2.41723	1077.3	2956.13	3146.31	-69.9768	20.5455	-0.021989	4.06335e-06	22.273	19.6617	1	13	0.010399	3.30515e-06	0.000108826	0.000298621	0.000317832	69.9768
1.63271	1434.41	4011.19	4259.95	-70.3229	24.4294	-0.0219907	2.21652e-08	24.3018	21.5465	1	14	0.010406	2.44276e-06	7.90431e-05	0.000221037	0.000234745	70.3229
1.10206	1906.91	5471.87	5794.63	-70.7869	28.2784	-0.0219868	8.9606e-07	26.3924	23.5342	1	14	0.0104044	1.79552e-06	5.67909e-05	0.000162962	0.000172574	70.7869
0.745609	2543.24	7467.71	7888.9	-71.1929	33.9502	-0.0219877	5.98927e-07	28.5839	25.6132	1	14	0.0104027	1.31865e-06	4.08653e-05	0.000119993	0.00012676	71.1929
0.503902	3373.2	10226.9	10768.8	-71.7455	42.326	-0.0219978	2.02019e-06	30.8838	27.8536	1	14	0.0104011	9.65854e-07	2.90875e-05	8.81875e-05	9.28608e-05	71.7455
0.340103	4539.85	14006.4	14723.8	-72.0411	54.7194	-0.0219956	-2.08841e-07	33.4105	30.2342	1	14	0.0104013	7.06427e-07	2.09413e-05	6.46083e-05	6.79174e-05	72.0411
0.230213	5986.92	19216.9	20127.9	-72.6959	73.0128	-0.0219926	3.15369e-07	35.9755	32.7927	1	14	0.0104008	5.16734e-07	1.47777e-05	4.74336e-05	4.96823e-05	72.6959
0.155473	7987	26461.5	27640.6	-73.2044	100.084	-0.0219863	4.74318e-07	38.6858	35.4556	1	14	0.0104017	3.7632e-07	1.04541e-05	3.46353e-05	3.61786e-05	73.2044
0.105049	10635.2	36642.8	38154.9	-73.8152	140.133	-0.0219878	4.68806e-07	41.3466	38.1342	1	14	0.010402	2.72626e-07	7.30538e-06	2.51702e-05	2.62089e-05	73.8152
0.0710227	14314.5	50729.7	52710.6	-74.2424	199.354	-0.02199	3.55065e-07	44.1734	40.9156	1	14	0.0104026	1.97353e-07	5.15205e-06	1.82586e-05	1.89715e-05	74.2424
0.0479883	19581.5	70598.8	73264.1	-74.498	286.985	-0.0219892	-2.31905e-07	46.9772	43.6214	1	14	0.0104013	1.4197e-07	3.64807e-06	1.31527e-05	1.36493e-05	74.498
0.0324439	26867.7	98006.4	101623	-74.6694	416.585	-0.021991	3.25793e-07	50.0532	46.5545	1	14	0.0103988	1.02328e-07	2.60166e-06	9.49018e-06	9.84034e-06	74.6694
0.0219206	37488.4	136634	141684	-74.6573	608.386	-0.0219966	-4.25549e-06	53.1384	49.4183	1	14	0.0104012	7.34111e-08	1.86749e-06	6.80643e-06	7.05798e-06	74.6573
0.0148076	53127.7	187910	195276	-74.2128	892.304	-0.0219987	2.21712e-07	57.1986	52.9648	1	14	0.0104015	5.32657e-08	1.39323e-06	4.92779e-06	5.12096e-06	74.2128
0.0100006	76460.5	261026	271994	-73.6735	1312.68	-0.0219928	1.78259e-07	60.9689	56.151	1	14	0.0104028	3.82465e-08	1.03352e-06	3.52829e-06	3.67655e-06	73.6735

File: 0708_01_EIS_0.5MTFSI_Blocking_OutsideGB_C01_C02.mpt
EC-Lab ASCII FILE
Nb header lines : 62

Potentio Electrochemical Impedance Spectroscopy

Run on channel : 2 (SN 35514)
User :
CE vs. WE compliance from -10 V to 10 V
Electrode connection : standard
Ewe ctrl range : min = -5.00 V, max = 5.00 V
Safety Limits :
	Do not start on E overload
Acquisition started on : 07/08/2023 16:13:12
Technique started on : 07/08/2023 16:13:14
Saved on :
	File : 0708_01_EIS_0.5MTFSI_Blocking_OutsideGB_C01_C02.mpr
	Directory : C:\Users\CESL\Documents\EC-Lab\Data\PhD\Leifer\Results\Zn Ion GPE\2023\0708\
	Host : 10.110.196.171
Device : VSP (SN 1724172417241724)
Address : USB
EC-Lab for windows v11.16 (software)
Internet server v11.16 (firmware)
Command interpretor v11.16 (firmware)
Electrode material : Au/Pd
Initial state :
Electrolyte : NaCl (0.2M)
Comments : Fe(CN)63-/Fe(CN)64- 5.10-3 M
Reference electrode : SCE Saturated Calomel Electrode (0.241 V)
Electrode surface area : 0.001 cm²
Characteristic mass : 0.001 g
Equivalent Weight : 0.000 g/eq.
Density : 0.000 g/cm3
Cycle Definition : Charge/Discharge alternance
Mode                Single sine
E (V)               0.0000
vs.                 Eoc
tE (h:m:s)          0:00:0.0000
record              0
dI                  0.000
unit dI             mA
dt (s)              0.000
fi                  1.000
unit fi             MHz
ff                  10.000
unit ff             mHz
Nd                  6
Points              per decade
spacing             Logarithmic
Va (mV)             10.0
pw                  0.10
Na                  2
corr                1
E range min (V)     -5.000
E range max (V)     5.000
I Range             Auto
Bandwidth           5
nc cycles           0
goto Ns'            0
nr cycles           0
inc. cycle          0

freq/Hz	Re(Z)/Ohm	-Im(Z)/Ohm	|Z|/Ohm	Phase(Z)/deg	time/s	<Ewe>/V	<I>/mA	Cs/µF	Cp/µF	cycle number	I Range	|Ewe|/V	|I|/A	Re(Y)/Ohm-1	Im(Y)/Ohm-1	|Y|/Ohm-1	Phase(Y)/deg
1.00002e+06	-25.4306	11.1496	27.7674	-156.326	2.30609	-0.0308448	0.00117865	0.0142742	0.00230145	1	10	0.000212901	7.66731e-06	-0.0329827	0.0144607	0.0360134	156.326
675752	42.9094	-12.192	44.6079	15.8616	2.71508	-0.0317637	0.00224141	-0.0193179	-0.00144306	1	10	0.00126644	2.83904e-05	0.021564	-0.00612703	0.0224176	-15.8616
456640	15.9967	-2.70093	16.2231	9.58362	3.12408	-0.0317839	0.00294434	-0.129042	-0.00357679	1	10	0.00478789	0.000295129	0.0607804	-0.0102624	0.0616406	-9.58362
308574	12.4266	-1.13274	12.4782	5.20835	3.53309	-0.0320478	0.00266654	-0.455335	-0.00375223	1	10	0.0101004	0.000809444	0.0798092	-0.00727493	0.0801401	-5.20835
208525	11.2965	-0.364955	11.3024	1.8504	4.07409	-0.0320785	0.00246331	-2.09133	-0.00218051	1	10	0.0101764	0.000900375	0.0884305	-0.00285691	0.0884767	-1.8504
140908	10.8596	0.207941	10.8616	-1.09697	4.61508	-0.0320521	0.00353166	5.4318	0.00199083	1	10	0.0101753	0.000936811	0.0920504	0.00176259	0.0920673	1.09697
95214.8	10.7512	0.771412	10.7788	-4.10401	5.02408	-0.0320394	0.00348878	2.16685	0.0110983	1	10	0.0109838	0.00101902	0.0925365	0.00663961	0.0927744	4.10401
64345.7	10.7604	1.39162	10.8501	-7.36901	5.43309	-0.0320509	0.0031252	1.77738	0.0292387	1	10	0.0107659	0.00099224	0.0914042	0.0118211	0.0921654	7.36901
43476.5	10.8896	2.12361	11.0948	-11.0349	5.84208	-0.0320265	0.00391575	1.72381	0.0631543	1	10	0.0105098	0.000947273	0.088466	0.0172519	0.0901325	11.0349
29384.8	11.0719	3.0593	11.4868	-15.4461	6.25109	-0.0320294	0.00399779	1.77042	0.12558	1	10	0.0102761	0.000894598	0.0839119	0.0231858	0.0870563	15.4461
19853.5	11.3342	4.32903	12.1328	-20.9041	6.6601	-0.032029	0.00379828	1.85179	0.235751	1	10	0.0101787	0.000838942	0.0769963	0.0294083	0.0824213	20.9041
13418	11.6235	6.05591	13.1065	-27.5197	6.93708	-0.0320379	0.00467832	1.95864	0.418157	1	10	0.010785	0.000822873	0.067665	0.0352538	0.076298	27.5197
9082.03	11.9427	8.55094	14.6883	-35.6026	7.23434	-0.0320151	0.0053775	2.04938	0.694556	1	10	0.0109051	0.000742436	0.0553552	0.0396342	0.0680813	35.6026
6140.96	12.3508	12.1836	17.3488	-44.6094	7.63763	-0.0320378	0.00176785	2.12721	1.0491	1	10	0.0108032	0.000622703	0.0410351	0.0404794	0.0576407	44.6094
4141.32	12.912	17.5119	21.7574	-53.5975	8.10369	-0.0319942	0.005398	2.19457	1.42167	1	10	0.0106412	0.000489083	0.0272759	0.0369928	0.0459613	53.5975
2797.31	13.6386	25.2145	28.6668	-61.591	8.56994	-0.0320011	0.00399963	2.25646	1.74571	1	10	0.0105106	0.000366647	0.0165963	0.0306827	0.0348836	61.591
1890.6	14.8049	36.411	39.3058	-67.8731	9.50967	-0.0320221	0.000190447	2.312	1.98399	1	11	0.01011	0.000257214	0.0095828	0.0235678	0.0254415	67.8731
1287.12	16.4563	52.1532	54.6879	-72.4876	9.97618	-0.0320242	8.35841e-05	2.37094	2.15626	1	11	0.00972201	0.000177773	0.00550235	0.0174381	0.0182856	72.4876
863.066	19.096	75.7218	78.0925	-75.8459	10.4432	-0.0320233	0.000135241	2.43532	2.2897	1	11	0.0095225	0.000121939	0.00313129	0.0124166	0.0128053	75.8459
583.692	22.8287	109.232	111.592	-78.1955	10.9102	-0.0320254	0.000197903	2.49624	2.39177	1	11	0.0094347	8.45463e-05	0.00183322	0.00877169	0.00896121	78.1955
394.117	28.5199	157.401	159.964	-79.7298	11.3772	-0.0320318	5.44874e-05	2.56559	2.48404	1	11	0.00938939	5.86969e-05	0.00111456	0.00615125	0.00625141	79.7298
266.449	37.0528	226.149	229.165	-80.6952	11.8407	-0.0320261	2.9683e-05	2.64125	2.5722	1	11	0.00936837	4.08805e-05	0.000705546	0.00430626	0.00436367	80.6952
180.058	50.6556	326.502	330.409	-81.1811	12.5587	-0.0320199	-8.1567e-06	2.70721	2.64358	1	12	0.00944135	2.85748e-05	0.000464007	0.00299078	0.00302656	81.1811
121.595	70.0967	467.964	473.184	-81.4809	13.0191	-0.032019	-6.19503e-05	2.79699	2.73561	1	12	0.00938619	1.98362e-05	0.000313067	0.00209002	0.00211334	81.4809
82.2368	107.452	673.207	681.728	-80.9314	13.4743	-0.032032	-4.39013e-05	2.87479	2.80337	1	12	0.00936774	1.37412e-05	0.000231202	0.00144853	0.00146686	80.9314
55.5152	161.756	964.354	977.826	-80.4781	13.9359	-0.0320183	-8.11373e-05	2.97284	2.89149	1	12	0.0093592	9.57144e-06	0.000169175	0.00100859	0.00102268	80.4781
37.5601	232.503	1372.75	1392.3	-80.387	14.4268	-0.032011	-5.55645e-05	3.08676	3.00068	1	12	0.00935495	6.71907e-06	0.00011994	0.000708152	0.000718237	80.387
25.3653	380.016	1945.65	1982.42	-78.9484	15.1359	-0.0320192	-8.19423e-07	3.22489	3.10639	1	13	0.00937152	4.72732e-06	9.66967e-05	0.00049508	0.000504435	78.9484
17.1327	599.193	2733.28	2798.19	-77.6351	15.5498	-0.0320277	1.32672e-06	3.39868	3.24284	1	13	0.00935741	3.3441e-06	7.65267e-05	0.000349084	0.000357374	77.6351
11.5912	924.655	3806.21	3916.91	-76.3455	15.9593	-0.0320292	-3.73948e-06	3.60743	3.40639	1	13	0.00935027	2.38715e-06	6.02686e-05	0.000248087	0.000255303	76.3455
7.82815	1422.03	5253.79	5442.84	-74.8548	16.5403	-0.0320137	1.02153e-05	3.86979	3.60564	1	13	0.00935644	1.71904e-06	4.80017e-05	0.000177346	0.000183728	74.8548
5.29302	2113	7237.32	7539.47	-73.7243	17.3768	-0.0320142	5.29878e-07	4.15469	3.82836	1	13	0.00935087	1.24026e-06	3.71722e-05	0.00012732	0.000132635	73.7243
3.57551	3155.86	9859.74	10352.5	-72.2514	19.2003	-0.0320127	2.40214e-06	4.51457	4.09504	1	14	0.00935752	9.03892e-07	2.94462e-05	9.19976e-05	9.65952e-05	72.2514
2.41723	4592.83	13402	14167.1	-71.0835	20.9775	-0.03201	3.62443e-06	4.91283	4.3965	1	14	0.00935528	6.6035e-07	2.28832e-05	6.67737e-05	7.05858e-05	71.0835
1.63271	6755.12	18122.2	19340.3	-69.5569	23.5884	-0.0320124	4.16653e-06	5.37899	4.72278	1	14	0.00935031	4.83463e-07	1.80596e-05	4.84491e-05	5.17055e-05	69.5569
1.10206	9850.96	24387.8	26302.2	-68.0048	27.4374	-0.0320086	4.11304e-06	5.92164	5.091	1	14	0.00935298	3.55596e-07	1.42394e-05	3.52523e-05	3.80196e-05	68.0048
0.745609	14377.6	32406.2	35452.4	-66.0747	33.1091	-0.0320109	4.30981e-06	6.5869	5.50357	1	14	0.00935129	2.6377e-07	1.14391e-05	2.57831e-05	2.82068e-05	66.0747
0.503902	20930.5	42735	47585.4	-63.9056	41.4849	-0.032014	3.79193e-06	7.39077	5.96088	1	14	0.00935092	1.96508e-07	9.24342e-06	1.88728e-05	2.10149e-05	63.9056
0.340103	30444.4	55187.1	63027.6	-61.1163	53.8783	-0.0320163	5.35465e-06	8.47955	6.50109	1	14	0.00935126	1.48368e-07	7.66384e-06	1.38924e-05	1.58661e-05	61.1163
0.230213	43483.1	70305.6	82665.9	-58.2638	72.1716	-0.0320188	5.40417e-06	9.83334	7.11259	1	14	0.00935057	1.13113e-07	6.36308e-06	1.02881e-05	1.20969e-05	58.2638
0.155473	60981.3	87828.2	106923	-55.2268	99.2429	-0.0320212	5.28956e-06	11.6555	7.86427	1	14	0.00934943	8.74409e-08	5.33403e-06	7.68232e-06	9.35253e-06	55.2268
0.105049	83741.8	108603	137140	-52.3649	139.292	-0.0320251	4.86065e-06	13.9503	8.74869	1	14	0.00935076	6.81841e-08	4.45261e-06	5.77451e-06	7.29182e-06	52.3649
0.0710227	112616	132852	174161	-49.7126	198.513	-0.0320169	4.19142e-06	16.8677	9.81495	1	14	0.00935012	5.36866e-08	3.71278e-06	4.37991e-06	5.74181e-06	49.7126
0.0479883	149501	163252	221363	-47.5176	286.144	-0.0320219	3.71035e-06	20.3155	11.0492	1	14	0.00935035	4.224e-08	3.05094e-06	3.33156e-06	4.51747e-06	47.5176
0.0324439	194864	201070	280002	-45.8981	415.744	-0.0320215	2.72659e-06	24.3971	12.5809	1	14	0.00935108	3.33965e-08	2.48547e-06	2.56464e-06	3.5714e-06	45.8981
0.0219206	253207	247819	354300	-44.3838	607.546	-0.032025	2.2099e-06	29.2977	14.3338	1	14	0.00935079	2.63923e-08	2.01713e-06	1.97421e-06	2.82247e-06	44.3838
0.0148076	326996	308772	449740	-43.3582	891.464	-0.0320292	1.92423e-06	34.8094	16.4078	1	14	0.00934955	2.07888e-08	1.61666e-06	1.52656e-06	2.2235e-06	43.3582
0.0100006	423333	388014	574253	-42.5074	1311.84	-0.032031	2.68454e-07	41.0152	18.7255	1	14	0.00934923	1.62807e-08	1.28374e-06	1.17663e-06	1.74139e-06	42.5074