Folder: PhD_Markup_Experiment/Python Codes/Alyssa_Old_Files/Functions.py/EIS Results/EIS_2023_07_08_Temp_In_Out_GB (part 3)

File: 0708_01_EIS_0.5MTFSI_Blocking_InsideGB_day_2_60C_t2_C01.mpt
EC-Lab ASCII FILE
Nb header lines : 62

Potentio Electrochemical Impedance Spectroscopy

Run on channel : 1 (SN 35512)
User :
CE vs. WE compliance from -10 V to 10 V
Electrode connection : standard
Ewe ctrl range : min = -5.00 V, max = 5.00 V
Safety Limits :
	Do not start on E overload
Acquisition started on : 07/09/2023 16:26:35
Technique started on : 07/09/2023 16:26:36
Saved on :
	File : 0708_01_EIS_0.5MTFSI_Blocking_InsideGB_day_2_60C_t2_C01.mpr
	Directory : C:\Users\CESL\Documents\EC-Lab\Data\PhD\Leifer\Results\Zn Ion GPE\2023\0708\
	Host : 10.110.196.171
Device : VSP (SN 1724172417241724)
Address : USB
EC-Lab for windows v11.16 (software)
Internet server v11.16 (firmware)
Command interpretor v11.16 (firmware)
Electrode material : Au/Pd
Initial state :
Electrolyte : NaCl (0.2M)
Comments : Fe(CN)63-/Fe(CN)64- 5.10-3 M
Reference electrode : SCE Saturated Calomel Electrode (0.241 V)
Electrode surface area : 0.001 cm²
Characteristic mass : 0.001 g
Equivalent Weight : 0.000 g/eq.
Density : 0.000 g/cm3
Cycle Definition : Charge/Discharge alternance
Mode                Single sine
E (V)               0.0000
vs.                 Eoc
tE (h:m:s)          0:00:0.0000
record              0
dI                  0.000
unit dI             mA
dt (s)              0.000
fi                  1.000
unit fi             MHz
ff                  10.000
unit ff             mHz
Nd                  6
Points              per decade
spacing             Logarithmic
Va (mV)             10.0
pw                  0.10
Na                  2
corr                1
E range min (V)     -5.000
E range max (V)     5.000
I Range             Auto
Bandwidth           5
nc cycles           0
goto Ns'            0
nr cycles           0
inc. cycle          0

freq/Hz	Re(Z)/Ohm	-Im(Z)/Ohm	|Z|/Ohm	Phase(Z)/deg	time/s	<Ewe>/V	<I>/mA	Cs/µF	Cp/µF	cycle number	I Range	|Ewe|/V	|I|/A	Re(Y)/Ohm-1	Im(Y)/Ohm-1	|Y|/Ohm-1	Phase(Y)/deg
1.00002e+06	2.97978	4.40687	5.31974	-55.9348	1.97409	0.0532843	0.0545768	0.0361145	0.0247835	1	9	0.000150754	2.83387e-05	0.105294	0.155722	0.187979	55.9348
675752	11.503	-9.74675	15.0771	40.2753	2.6771	0.052808	-0.00180735	-0.0241642	-0.0100985	1	10	0.000781082	5.18059e-05	0.0506031	-0.0428771	0.0663258	-40.2753
456640	6.80522	-3.52583	7.66436	27.389	3.0861	0.0529148	-0.000968208	-0.0988517	-0.0209197	1	10	0.00261638	0.000341369	0.115848	-0.0600218	0.130474	-27.389
308574	5.78564	-1.82134	6.06555	17.4742	3.49508	0.0527033	0.000277451	-0.283184	-0.0255336	1	10	0.00673535	0.00111043	0.157257	-0.0495053	0.164866	-17.4742
208525	5.39602	-0.936896	5.47676	9.8499	3.90409	0.0526786	0.00227647	-0.814648	-0.02384	1	10	0.0104827	0.00191403	0.179898	-0.0312352	0.18259	-9.8499
140908	5.25084	-0.335332	5.26154	3.65409	4.44508	0.0526995	0.00525444	-3.36829	-0.0136815	1	10	0.010181	0.00193498	0.189672	-0.0121129	0.190058	-3.65409
95214.8	5.19268	0.172974	5.19556	-1.90788	4.98608	0.0527205	0.00470435	9.66351	0.010711	1	10	0.0101069	0.00194529	0.192365	0.00640791	0.192472	1.90788
64345.7	5.18976	0.692819	5.2358	-7.60387	5.3951	0.0527033	0.00570385	3.57011	0.0625106	1	10	0.0107577	0.00205464	0.189313	0.0252728	0.190993	7.60387
43476.5	5.21141	1.28755	5.36811	-13.8777	5.8041	0.0527227	0.00468383	2.84317	0.163563	1	10	0.0107475	0.0020021	0.180848	0.0446807	0.186285	13.8777
29384.8	5.27472	2.05227	5.6599	-21.2599	6.21308	0.0527138	0.00531225	2.63914	0.346989	1	10	0.010673	0.00188571	0.164657	0.0640645	0.176681	21.2599
19853.5	5.36908	3.10127	6.20039	-30.0115	6.6221	0.0527212	0.0054782	2.5849	0.646673	1	10	0.0104865	0.00169127	0.139657	0.0806681	0.16128	30.0115
13418	5.51312	4.55485	7.1513	-39.5629	7.03109	0.052711	0.00522272	2.60411	1.05642	1	10	0.0102568	0.00143425	0.107802	0.0890642	0.139835	39.5629
9082.03	5.73657	6.63467	8.77081	-49.1522	7.32833	0.0527233	0.00741378	2.6413	1.51139	1	10	0.0101737	0.00115995	0.0745715	0.0862463	0.114015	49.1522
6140.96	6.06516	9.59272	11.3493	-57.6962	7.73164	0.0527235	0.0094743	2.70173	1.93014	1	10	0.00965406	0.000850631	0.0470874	0.0744739	0.0881112	57.6962
4141.32	6.58334	13.8486	15.3338	-64.5746	8.1977	0.0527646	0.0140559	2.77507	2.26354	1	10	0.00927106	0.000604616	0.0279994	0.058899	0.0652155	64.5746
2797.31	7.27188	19.9394	21.2241	-69.9632	8.66393	0.0527633	0.0136513	2.85342	2.51846	1	10	0.00904312	0.000426079	0.0161432	0.0442645	0.0471163	69.9632
1890.6	8.29872	28.5864	29.7666	-73.8118	9.34971	0.0527718	0.0148447	2.94483	2.71594	1	10	0.00982077	0.000329926	0.00936595	0.0322627	0.0335947	73.8118
1287.12	9.85277	40.9708	42.1389	-76.4781	10.0682	0.0527543	0.000754462	3.01806	2.85306	1	11	0.0102361	0.000242914	0.00554872	0.0230732	0.023731	76.4781
863.066	12.1483	59.3585	60.5889	-78.4336	10.5352	0.0527486	0.000672056	3.10666	2.98176	1	11	0.00994584	0.000164153	0.00330926	0.0161695	0.0165047	78.4336
583.692	15.3162	85.2259	86.5912	-79.812	11.0022	0.0527449	0.000700765	3.19937	3.09927	1	11	0.00982378	0.00011345	0.00204269	0.0113664	0.0115485	79.812
394.117	20.425	122.475	124.167	-80.532	11.4692	0.0527433	0.00052794	3.29721	3.20799	1	11	0.00975849	7.8592e-05	0.00132481	0.00794399	0.0080537	80.532
266.449	27.8222	175.372	177.566	-80.9854	11.9327	0.0527433	0.000691442	3.406	3.32238	1	11	0.00972126	5.47474e-05	0.000882416	0.00556216	0.00563172	80.9854
180.058	39.8369	252.784	255.903	-81.0442	12.6507	0.0527417	0.000110929	3.49671	3.41197	1	12	0.00982476	3.83924e-05	0.000608322	0.00386008	0.00390772	81.0442
121.595	58.7193	362.173	366.902	-80.7907	13.1111	0.0527463	1.70445e-05	3.61399	3.52143	1	12	0.00975848	2.6597e-05	0.000436195	0.00269039	0.00272552	80.7907
82.2368	86.0194	515.17	522.302	-80.5206	13.5663	0.0527453	-0.000122309	3.75667	3.65478	1	12	0.00972479	1.86191e-05	0.000315321	0.00188846	0.0019146	80.5206
55.5152	132.335	736.78	748.57	-79.8176	14.0289	0.0527433	4.34712e-05	3.89108	3.76948	1	12	0.00971204	1.29741e-05	0.000236161	0.00131484	0.00133588	79.8176
37.5601	209.177	1033.91	1054.86	-78.5625	14.5208	0.0527509	3.12926e-05	4.09838	3.93722	1	12	0.00970425	9.1996e-06	0.000187987	0.000929171	0.000947997	78.5625
25.3653	325.122	1444.28	1480.42	-77.3137	14.9799	0.0527528	0.000181276	4.34439	4.13486	1	12	0.00969972	6.55199e-06	0.000148345	0.000658992	0.000675482	77.3137
17.1327	460.584	1993.51	2046.02	-76.9905	15.6218	0.0527371	6.81184e-06	4.6599	4.42376	1	13	0.00971748	4.74944e-06	0.000110024	0.000476208	0.000488753	76.9905
11.5912	662.147	2764.25	2842.45	-76.5292	16.0313	0.0527285	-2.99568e-06	4.96722	4.69767	1	13	0.00970357	3.41381e-06	8.19539e-05	0.000342131	0.000351809	76.5292
7.82815	919.173	3808.65	3918	-76.4318	16.6133	0.0527393	-3.76965e-06	5.33813	5.04433	1	13	0.00970563	2.47719e-06	5.98782e-05	0.000248109	0.000255232	76.4318
5.29302	1176.43	5273.86	5403.48	-77.425	17.4497	0.0527476	-8.44216e-07	5.70148	5.43123	1	13	0.00970368	1.79582e-06	4.0292e-05	0.000180627	0.000185066	77.425
3.57551	1491.33	7424.08	7572.39	-78.6418	19.2733	0.0527548	2.47725e-06	5.99568	5.76313	1	14	0.0097113	1.28246e-06	2.6008e-05	0.000129472	0.000132059	78.6418
2.41723	1859.28	10511.4	10674.6	-79.9692	21.0505	0.052755	6.77324e-07	6.26384	6.07381	1	14	0.00970711	9.09367e-07	1.63171e-05	9.22485e-05	9.36805e-05	79.9692
1.63271	2334.27	15079.8	15259.4	-81.2008	23.6613	0.0527521	5.26139e-07	6.46422	6.31295	1	14	0.00970227	6.35822e-07	1.00248e-05	6.4762e-05	6.55333e-05	81.2008
1.10206	3112.83	21776.1	21997.5	-81.8649	27.5096	0.0527501	8.23973e-07	6.63184	6.49904	1	14	0.00970068	4.4099e-07	6.43294e-06	4.50022e-05	4.54597e-05	81.8649
0.745609	4294.64	31383	31675.5	-82.2077	33.1824	0.0527509	1.34942e-06	6.80166	6.67663	1	14	0.00970016	3.06236e-07	4.28037e-06	3.12787e-05	3.15702e-05	82.2077
0.503902	6401.23	45289.5	45739.7	-81.9551	41.5582	0.0527475	1.49138e-07	6.97391	6.83732	1	14	0.00970017	2.12073e-07	3.05969e-06	2.16477e-05	2.18629e-05	81.9551
0.340103	9577.42	65199.7	65899.4	-81.6434	53.9517	0.0527505	7.03083e-07	7.17735	7.02575	1	14	0.00969876	1.47175e-07	2.20539e-06	1.50135e-05	1.51746e-05	81.6434
0.230213	15046.8	93281.2	94487	-80.8368	72.245	0.0527492	9.2136e-07	7.41134	7.22339	1	14	0.00970101	1.0267e-07	1.68538e-06	1.04484e-05	1.05835e-05	80.8368
0.155473	24261.4	133819	136001	-79.7239	99.3162	0.052749	1.20032e-06	7.64974	7.4063	1	14	0.0097026	7.13421e-08	1.31169e-06	7.23494e-06	7.35289e-06	79.7239
0.105049	39548.8	189220	193309	-78.1946	139.366	0.0527469	1.09236e-06	8.00683	7.6717	1	14	0.00970004	5.01789e-08	1.05835e-06	5.06365e-06	5.17307e-06	78.1946
0.0710227	65543.9	266891	274822	-76.2022	198.586	0.0527438	1.03381e-06	8.39631	7.91873	1	14	0.00970179	3.53021e-08	8.67821e-07	3.53372e-06	3.63872e-06	76.2022
0.0479883	106903	371104	386195	-73.9301	286.217	0.0527438	1.08428e-06	8.93694	8.25215	1	14	0.00970057	2.51183e-08	7.16764e-07	2.48819e-06	2.58937e-06	73.9301
0.0324439	180399	506082	537274	-70.3808	415.817	0.0527408	1.40478e-06	9.69317	8.60036	1	14	0.00970073	1.80555e-08	6.24948e-07	1.75319e-06	1.86125e-06	70.3808
0.0219206	293707	682473	742989	-66.715	607.618	0.0527414	1.47717e-06	10.6386	8.97611	1	14	0.00970041	1.30559e-08	5.32046e-07	1.23629e-06	1.34591e-06	66.715
0.0148076	475862	889998	1.00923e+06	-61.8676	891.537	0.0527388	1.90603e-06	12.0766	9.39173	1	14	0.00970122	9.61251e-09	4.672e-07	8.73797e-07	9.90856e-07	61.8676
0.0100006	735922	1.11823e+06	1.33867e+06	-56.6506	1311.91	0.0527362	2.08114e-06	14.2318	9.93071	1	14	0.00970092	7.24671e-09	4.10665e-07	6.24005e-07	7.47012e-07	56.6506

File: 0708_01_EIS_0.5MTFSI_Blocking_InsideGB_day_2_C01.mpt
EC-Lab ASCII FILE
Nb header lines : 62

Potentio Electrochemical Impedance Spectroscopy

Run on channel : 1 (SN 35512)
User :
CE vs. WE compliance from -10 V to 10 V
Electrode connection : standard
Ewe ctrl range : min = -5.00 V, max = 5.00 V
Safety Limits :
	Do not start on E overload
Acquisition started on : 07/09/2023 10:45:09
Technique started on : 07/09/2023 10:45:11
Saved on :
	File : 0708_01_EIS_0.5MTFSI_Blocking_InsideGB_day_2_C01.mpr
	Directory : C:\Users\CESL\Documents\EC-Lab\Data\PhD\Leifer\Results\Zn Ion GPE\2023\0708\
	Host : 10.110.196.171
Device : VSP (SN 1724172417241724)
Address : USB
EC-Lab for windows v11.16 (software)
Internet server v11.16 (firmware)
Command interpretor v11.16 (firmware)
Electrode material : Au/Pd
Initial state :
Electrolyte : NaCl (0.2M)
Comments : Fe(CN)63-/Fe(CN)64- 5.10-3 M
Reference electrode : SCE Saturated Calomel Electrode (0.241 V)
Electrode surface area : 0.001 cm²
Characteristic mass : 0.001 g
Equivalent Weight : 0.000 g/eq.
Density : 0.000 g/cm3
Cycle Definition : Charge/Discharge alternance
Mode                Single sine
E (V)               0.0000
vs.                 Eoc
tE (h:m:s)          0:00:0.0000
record              0
dI                  0.000
unit dI             mA
dt (s)              0.000
fi                  1.000
unit fi             MHz
ff                  10.000
unit ff             mHz
Nd                  6
Points              per decade
spacing             Logarithmic
Va (mV)             10.0
pw                  0.10
Na                  2
corr                1
E range min (V)     -5.000
E range max (V)     5.000
I Range             Auto
Bandwidth           5
nc cycles           0
goto Ns'            0
nr cycles           0
inc. cycle          0

freq/Hz	Re(Z)/Ohm	-Im(Z)/Ohm	|Z|/Ohm	Phase(Z)/deg	time/s	<Ewe>/V	<I>/mA	Cs/µF	Cp/µF	cycle number	I Range	|Ewe|/V	|I|/A	Re(Y)/Ohm-1	Im(Y)/Ohm-1	|Y|/Ohm-1	Phase(Y)/deg
1.00002e+06	-30.8194	20.0862	36.7871	-146.906	2.30608	0.0714239	0.0086799	0.00792345	0.00236221	1	10	0.000252078	6.85234e-06	-0.0227737	0.0148425	0.0271834	146.906
675752	24.7485	-10.6981	26.9618	23.3776	2.71509	0.0707968	0.0068506	-0.0220153	-0.00346612	1	10	0.00134164	4.97606e-05	0.0340448	-0.0147167	0.0370895	-23.3776
456640	13.7045	-3.57958	14.1643	14.6384	3.1241	0.0709063	0.00648699	-0.0973674	-0.00621851	1	10	0.00471139	0.000332624	0.0683083	-0.0178419	0.0706	-14.6384
308574	11.4264	-1.77228	11.5631	8.81652	3.5331	0.0707151	0.00760771	-0.291024	-0.0068367	1	10	0.0100654	0.000870477	0.0854604	-0.0132552	0.0864822	-8.81652
208525	10.6035	-0.83621	10.6364	4.5091	4.07409	0.0706787	0.00715085	-0.912737	-0.00564136	1	10	0.0101216	0.000951598	0.0937254	-0.00739133	0.0940164	-4.5091
140908	10.2876	-0.210272	10.2898	1.17092	4.61509	0.0706804	0.00791912	-5.37159	-0.00224313	1	10	0.0101465	0.000986078	0.0971637	-0.00198596	0.097184	-1.17092
95214.8	10.1718	0.360221	10.1781	-2.02821	5.15609	0.0706843	0.0074809	4.6403	0.00581229	1	10	0.0101093	0.000993237	0.0981882	0.00347722	0.0982497	2.02821
64345.7	10.1318	0.949398	10.1762	-5.35327	5.56509	0.0707025	0.00892607	2.60527	0.0226768	1	10	0.0105652	0.00103823	0.0978403	0.00916813	0.0982689	5.35327
43476.5	10.1538	1.67032	10.2902	-9.34166	5.97409	0.0706908	0.00848413	2.19162	0.0577452	1	10	0.0105214	0.00102247	0.0958908	0.0157743	0.0971796	9.34166
29384.8	10.208	2.60116	10.5342	-14.2956	6.38308	0.0706917	0.00914238	2.08224	0.126959	1	10	0.0103366	0.000981244	0.0919893	0.0234403	0.0949288	14.2956
19853.5	10.2989	3.88659	11.0079	-20.6754	6.7921	0.0707063	0.00864077	2.0626	0.257124	1	10	0.0101916	0.000925848	0.0849931	0.0320745	0.0908438	20.6754
13418	10.4615	5.70013	11.9137	-28.5844	7.06908	0.0707067	0.00887386	2.08089	0.476352	1	10	0.0109909	0.000922544	0.0737064	0.0401601	0.0839373	28.5844
9082.03	10.6779	8.29719	13.5226	-37.8487	7.50633	0.0707045	0.00941276	2.11206	0.795144	1	10	0.0102088	0.000754941	0.0583935	0.0453742	0.0739501	37.8487
6140.96	11.0168	12.0613	16.3354	-47.5913	7.90963	0.0707079	0.00872281	2.14877	1.17144	1	10	0.0100757	0.000616802	0.0412855	0.0451996	0.0612168	47.5913
4141.32	11.497	17.5035	20.9417	-56.7016	8.37569	0.0707461	0.0116971	2.19561	1.53385	1	10	0.00988352	0.000471955	0.0262157	0.039912	0.0477517	56.7016
2797.31	12.3319	25.4048	28.2397	-64.1072	8.84193	0.0707409	0.0111544	2.23956	1.81249	1	10	0.00974962	0.000345245	0.0154636	0.0318563	0.0354112	64.1072
1890.6	13.4649	36.8093	39.1947	-69.9074	9.55969	0.0707154	0.000877322	2.28698	2.01707	1	11	0.0103972	0.000265271	0.0087649	0.0239608	0.0255136	69.9074
1287.12	15.2304	52.8091	54.9615	-73.9121	10.0262	0.0707122	0.000889625	2.3415	2.16169	1	11	0.00997193	0.000181435	0.00504192	0.017482	0.0181946	73.9121
863.066	17.7863	76.7984	78.8311	-76.9604	10.4932	0.0707197	0.000895775	2.40117	2.27894	1	11	0.00975878	0.000123794	0.00286213	0.0123582	0.0126853	76.9604
583.692	21.3537	110.572	112.615	-79.0696	10.9602	0.0707135	0.000831082	2.46598	2.37732	1	11	0.00966739	8.58444e-05	0.00168376	0.0087187	0.00887979	79.0696
394.117	27.0991	159.563	161.848	-80.3613	11.4272	0.0707084	0.0010686	2.53082	2.45987	1	11	0.00961903	5.94324e-05	0.00103452	0.0060914	0.00617863	80.3613
266.449	34.8823	229.817	232.449	-81.3694	11.8907	0.0707109	0.000828843	2.5991	2.54057	1	11	0.0095911	4.1261e-05	0.000645578	0.0042533	0.00430201	81.3694
180.058	49.1147	331.938	335.552	-81.5834	12.6077	0.0707169	0.000162477	2.66288	2.60583	1	12	0.00966552	2.88048e-05	0.000436207	0.00294807	0.00298017	81.5834
121.595	69.5895	478.323	483.359	-81.7223	13.0681	0.0707187	1.19156e-05	2.73642	2.6797	1	12	0.0096178	1.98979e-05	0.000297855	0.0020473	0.00206886	81.7223
82.2368	99.86	679.168	686.47	-81.6356	13.5233	0.0707177	0.000104121	2.84955	2.78925	1	12	0.00959417	1.39761e-05	0.000211908	0.00144123	0.00145673	81.6356
55.5152	167.14	976.452	990.654	-80.2868	13.9859	0.0707192	3.65893e-05	2.93601	2.85243	1	12	0.00957996	9.67034e-06	0.000170309	0.000994964	0.00100943	80.2868
37.5601	256.014	1378.61	1402.18	-79.4797	14.4777	0.0707246	0.000133784	3.07364	2.97118	1	12	0.00957388	6.82788e-06	0.000130214	0.000701189	0.000713177	79.4797
25.3653	390.825	1971.17	2009.54	-78.7854	15.1869	0.0707201	1.91742e-05	3.18315	3.06275	1	13	0.0095964	4.77542e-06	9.67808e-05	0.000488124	0.000497626	78.7854
17.1327	606.03	2746.66	2812.72	-77.5575	15.5998	0.0707139	-7.32411e-06	3.38213	3.22512	1	13	0.00959209	3.41025e-06	7.66021e-05	0.000347177	0.000355527	77.5575
11.5912	902.854	3833.35	3938.24	-76.7469	16.0093	0.070709	4.22516e-06	3.58189	3.39363	1	13	0.00958594	2.43407e-06	5.82122e-05	0.000247158	0.000253921	76.7469
7.82815	1321.39	5222.53	5387.1	-75.8011	16.5913	0.0707206	-1.05178e-05	3.89296	3.65874	1	13	0.00957584	1.77755e-06	4.55324e-05	0.000179958	0.000185629	75.8011
5.29302	1848.04	7173.18	7407.41	-75.5529	17.4277	0.0707252	3.64705e-06	4.19184	3.93093	1	13	0.00957604	1.29277e-06	3.36805e-05	0.000130731	0.000135	75.5529
3.57551	2437.5	9915.42	10210.6	-76.1889	19.2513	0.0707299	-9.02561e-07	4.48922	4.23338	1	14	0.0095792	9.3816e-07	2.33798e-05	9.51056e-05	9.79372e-05	76.1889
2.41723	3024.64	13738	14067.1	-77.5835	21.0286	0.0707264	1.36085e-06	4.79266	4.57109	1	14	0.0095769	6.80803e-07	1.52851e-05	6.94253e-05	7.1088e-05	77.5835
1.63271	3663.85	19408.5	19751.3	-79.3098	23.6394	0.0707235	1.15186e-06	5.02251	4.84969	1	14	0.00957655	4.84858e-07	9.39177e-06	4.97509e-05	5.06297e-05	79.3098
1.10206	4500.71	27838.5	28200	-80.8163	27.4884	0.0707276	3.21357e-07	5.18763	5.05549	1	14	0.00957604	3.39576e-07	5.65957e-06	3.50065e-05	3.5461e-05	80.8163
0.745609	5578.31	40028.2	40415.1	-82.0664	33.1602	0.070724	7.39537e-07	5.33264	5.23105	1	14	0.00957458	2.36906e-07	3.4152e-06	2.45064e-05	2.47433e-05	82.0664
0.503902	7047.47	57673.2	58102.2	-83.0332	41.536	0.0707245	7.43976e-07	5.47645	5.39588	1	14	0.00957305	1.64762e-07	2.0876e-06	1.7084e-05	1.7211e-05	83.0332
0.340103	9517.13	83664.2	84203.8	-83.5103	53.9294	0.0707255	9.8701e-07	5.59333	5.52188	1	14	0.00957556	1.13719e-07	1.34228e-06	1.17999e-05	1.1876e-05	83.5103
0.230213	13058.5	120985	121688	-83.8396	72.2227	0.0707215	8.74221e-07	5.71424	5.64844	1	14	0.00957428	7.8679e-08	8.81858e-07	8.17029e-06	8.21775e-06	83.8396
0.155473	18596.7	175360	176343	-83.9465	99.2939	0.0707237	8.2005e-07	5.83763	5.77271	1	14	0.00957349	5.4289e-08	5.98026e-07	5.63915e-06	5.67077e-06	83.9465
0.105049	26927	253180	254607	-83.9291	139.343	0.0707199	7.4486e-07	5.98411	5.91717	1	14	0.00957445	3.76047e-08	4.1538e-07	3.90559e-06	3.92761e-06	83.9291
0.0710227	38940.1	365109	367180	-83.9122	198.564	0.0707202	7.89604e-07	6.13762	6.06859	1	14	0.00957304	2.60718e-08	2.88828e-07	2.7081e-06	2.72346e-06	83.9122
0.0479883	57405.1	528485	531594	-83.8007	286.195	0.0707193	5.35059e-07	6.27555	6.20237	1	14	0.00957419	1.80103e-08	2.03138e-07	1.87014e-06	1.88114e-06	83.8007
0.0324439	87966.3	765245	770284	-83.4425	415.795	0.0707171	6.44458e-07	6.41042	6.32682	1	14	0.00957371	1.24288e-08	1.48257e-07	1.28973e-06	1.29822e-06	83.4425
0.0219206	146074	1.10308e+06	1.11271e+06	-82.4566	607.596	0.0707234	8.54829e-07	6.58202	6.46858	1	14	0.00957408	8.60425e-09	1.17979e-07	8.90925e-07	8.98703e-07	82.4566
0.0148076	220662	1.57795e+06	1.59331e+06	-82.0394	891.514	0.0707166	6.72081e-07	6.81147	6.68082	1	14	0.00957258	6.00799e-09	8.69216e-08	6.21577e-07	6.27625e-07	82.0394
0.0100006	385890	2.25784e+06	2.29058e+06	-80.3012	1311.89	0.0707113	7.97804e-07	7.04853	6.84849	1	14	0.00957372	4.1796e-09	7.35481e-08	4.3033e-07	4.3657e-07	80.3012