Folder: PhD_Markup_Experiment/Python Codes/Alyssa_Old_Files/Functions.py/EIS Results/EIS_2023_07_08_Temp_In_Out_GB (part 13)

File: 0708_01_EIS_0.5MTFSI_SymCell_OutsideGB_sanded_RT_C04.mpt
EC-Lab ASCII FILE
Nb header lines : 62

Potentio Electrochemical Impedance Spectroscopy

Run on channel : 4 (SN 35517)
User :
CE vs. WE compliance from -10 V to 10 V
Electrode connection : standard
Ewe ctrl range : min = -5.00 V, max = 5.00 V
Safety Limits :
	Do not start on E overload
Acquisition started on : 07/09/2023 14:49:02
Technique started on : 07/09/2023 14:49:04
Saved on :
	File : 0708_01_EIS_0.5MTFSI_SymCell_OutsideGB_sanded_RT_C04.mpr
	Directory : C:\Users\CESL\Documents\EC-Lab\Data\PhD\Leifer\Results\Zn Ion GPE\2023\0708\
	Host : 10.110.196.171
Device : VSP (SN 1724172417241724)
Address : USB
EC-Lab for windows v11.16 (software)
Internet server v11.16 (firmware)
Command interpretor v11.16 (firmware)
Electrode material : Au/Pd
Initial state :
Electrolyte : NaCl (0.2M)
Comments : Fe(CN)63-/Fe(CN)64- 5.10-3 M
Reference electrode : SCE Saturated Calomel Electrode (0.241 V)
Electrode surface area : 0.001 cm²
Characteristic mass : 0.001 g
Equivalent Weight : 0.000 g/eq.
Density : 0.000 g/cm3
Cycle Definition : Charge/Discharge alternance
Mode                Single sine
E (V)               0.0000
vs.                 Eoc
tE (h:m:s)          0:00:0.0000
record              0
dI                  0.000
unit dI             mA
dt (s)              0.000
fi                  1.000
unit fi             MHz
ff                  10.000
unit ff             mHz
Nd                  6
Points              per decade
spacing             Logarithmic
Va (mV)             10.0
pw                  0.10
Na                  2
corr                1
E range min (V)     -5.000
E range max (V)     5.000
I Range             Auto
Bandwidth           5
nc cycles           0
goto Ns'            0
nr cycles           0
inc. cycle          0

freq/Hz	Re(Z)/Ohm	-Im(Z)/Ohm	|Z|/Ohm	Phase(Z)/deg	time/s	<Ewe>/V	<I>/mA	Cs/µF	Cp/µF	cycle number	I Range	|Ewe|/V	|I|/A	Re(Y)/Ohm-1	Im(Y)/Ohm-1	|Y|/Ohm-1	Phase(Y)/deg
1.00002e+06	396.639	29.4189	397.729	-4.24188	2.48809	0.000329993	-9.44128e-05	0.00540985	2.95981e-05	1	11	0.00146907	3.69365e-06	0.00250739	0.000185974	0.00251427	4.24188
675752	115.303	-1.01667	115.307	0.505187	2.8971	0.000301706	0.000461001	-0.231661	-1.80095e-05	1	11	0.00564001	4.89129e-05	0.00867215	-7.64659e-05	0.00867248	-0.505187
456640	86.5755	0.689214	86.5783	-0.456113	3.3061	0.000492426	0.000529332	0.505698	3.20466e-05	1	11	0.0102073	0.000117896	0.0115499	9.19468e-05	0.0115502	0.456113
308574	78.0366	2.35986	78.0723	-1.73212	3.84708	0.000472157	0.000620251	0.218562	0.000199688	1	11	0.0100686	0.000128965	0.0128028	0.000387162	0.0128086	1.73212
208525	75.1943	4.23763	75.3136	-3.22554	4.25608	0.00049981	0.000618757	0.18011	0.000570214	1	11	0.010827	0.000143759	0.0132568	0.000747096	0.0132778	3.22554
140908	74.3729	6.48211	74.6549	-4.98113	4.66508	0.00051098	0.000636866	0.174248	0.00131366	1	11	0.010795	0.000144598	0.0133444	0.00116305	0.013395	4.98113
95214.8	74.8913	8.85437	75.4129	-6.74275	5.0741	0.000524592	0.000557895	0.188781	0.00260244	1	11	0.0106351	0.000141025	0.0131686	0.00155692	0.0132603	6.74275
64345.7	76.2883	11.7414	77.1865	-8.74961	5.4831	0.000526363	0.000418062	0.21066	0.00487457	1	11	0.0105415	0.000136572	0.0128049	0.00197077	0.0129556	8.74961
43476.5	78.1642	15.3434	79.6559	-11.1058	5.89209	0.000516145	0.0004526	0.238585	0.00885219	1	11	0.0104921	0.000131718	0.0123189	0.00241816	0.012554	11.1058
29384.8	80.7106	19.8464	83.1149	-13.8147	6.3011	0.000532703	0.00056947	0.272908	0.0155605	1	11	0.0103912	0.000125022	0.0116835	0.00287292	0.0120315	13.8147
19853.5	84.1277	25.5869	87.9327	-16.9168	6.71009	0.000527221	0.000650121	0.313303	0.0265277	1	11	0.0102543	0.000116615	0.0108802	0.00330915	0.0113723	16.9168
13418	88.3	33.1385	94.3136	-20.5709	7.11908	0.00053	0.000522983	0.357932	0.0441894	1	11	0.0101588	0.000107713	0.00992687	0.0037255	0.0106029	20.5709
9082.03	93.0756	42.7931	102.442	-24.6914	7.41633	0.000516965	0.000489005	0.409509	0.0714589	1	11	0.0105723	0.000103203	0.00886914	0.00407774	0.00976164	24.6914
6140.96	98.7885	56.1227	113.617	-29.6013	7.81964	0.000522243	0.000353652	0.461791	0.112676	1	11	0.0106585	9.38101e-05	0.00765273	0.00434759	0.00880147	29.6013
4141.32	105.695	74.5249	129.327	-35.1874	8.28567	0.000556422	0.000693993	0.515679	0.17124	1	11	0.0106119	8.20546e-05	0.00631943	0.00445578	0.00773235	35.1874
2797.31	114.28	100.766	152.36	-41.4041	8.75196	0.000558492	0.000668042	0.564632	0.246973	1	11	0.0105359	6.91513e-05	0.00492296	0.0043408	0.00656339	41.4041
1890.6	124.9	137.061	185.434	-47.6579	9.21666	0.000564739	0.000772963	0.614193	0.335547	1	11	0.0104574	5.63939e-05	0.00363232	0.00398597	0.00539275	47.6579
1287.12	139.16	187.014	233.109	-53.3466	9.68318	0.000560301	0.000635184	0.661193	0.425559	1	11	0.0104141	4.46749e-05	0.00256092	0.00344157	0.00428984	53.3466
863.066	159.3	260.591	305.425	-58.5625	10.1502	0.000562184	0.000696232	0.707646	0.515143	1	11	0.0103773	3.39766e-05	0.00170768	0.00279352	0.00327413	58.5625
583.692	189.394	359.249	406.115	-62.202	10.8692	0.00054102	-4.88886e-05	0.758999	0.593926	1	12	0.0105661	2.60176e-05	0.00114833	0.00217819	0.00246235	62.202
394.117	232.434	497.1	548.756	-64.9401	11.3362	0.000540666	-6.92527e-05	0.812365	0.666621	1	12	0.0104471	1.90378e-05	0.000771864	0.00165076	0.0018223	64.9401
266.449	303.511	690.931	754.655	-66.2851	11.7997	0.000537999	2.02288e-05	0.864512	0.724674	1	12	0.0103889	1.37664e-05	0.00053294	0.00121321	0.00132511	66.2851
180.058	398.739	951.43	1031.61	-67.2617	12.2647	0.00053537	6.46522e-05	0.929035	0.790237	1	12	0.0103625	1.0045e-05	0.00037468	0.000894023	0.000969362	67.2617
121.595	569.974	1304.03	1423.15	-66.3905	12.7251	0.000537663	3.93793e-05	1.00373	0.842729	1	12	0.010355	7.27607e-06	0.000281418	0.000643849	0.000702665	66.3905
82.2368	837.23	1727.8	1919.96	-64.1468	13.1803	0.000536974	-4.28603e-05	1.12011	0.907116	1	12	0.0103362	5.38356e-06	0.000227123	0.000468715	0.000520844	64.1468
55.5152	1223.3	2306.62	2610.93	-62.061	13.8929	0.000541934	-6.29507e-05	1.24289	0.970048	1	13	0.0103618	3.96863e-06	0.00017945	0.000338364	0.000383005	62.061
37.5601	1827.76	2957.34	3476.58	-58.2821	14.3838	0.000548982	-6.24943e-05	1.43282	1.03679	1	13	0.0103424	2.97487e-06	0.000151223	0.00024468	0.000287639	58.2821
25.3653	2724.24	3638.24	4545.13	-53.1749	14.8429	0.000541673	-5.91521e-05	1.72461	1.10504	1	13	0.0103423	2.27546e-06	0.000131872	0.000176116	0.000220016	53.1749
17.1327	3923.4	4212.06	5756.26	-47.0321	15.2568	0.000544843	-8.10683e-05	2.20547	1.18089	1	13	0.0103312	1.79477e-06	0.000118408	0.00012712	0.000173724	47.0321
11.5912	5369.35	4614.68	7079.91	-40.6774	15.6663	0.000539547	-6.86776e-05	2.97542	1.26408	1	13	0.0103305	1.45913e-06	0.000107119	9.20632e-05	0.000141245	40.6774
7.82815	6939.04	4585.02	8317.01	-33.455	16.2482	0.000543491	-7.3332e-05	4.43424	1.34762	1	13	0.0103316	1.24223e-06	0.000100315	6.62837e-05	0.000120235	33.455
5.29302	8395.58	4249.99	9410.01	-26.8493	17.5117	0.000544389	-6.81696e-05	7.07503	1.44319	1	14	0.0103351	1.09831e-06	9.48137e-05	4.79963e-05	0.00010627	26.8493
3.57551	9637.04	3659.86	10308.6	-20.7953	18.7264	0.000547949	-7.01226e-05	12.1623	1.53302	1	14	0.0103331	1.00238e-06	9.0687e-05	3.44402e-05	9.70065e-05	20.7953
2.41723	10568.4	2936.92	10968.9	-15.5305	20.5035	0.000545339	-7.28816e-05	22.4186	1.60721	1	14	0.0103318	9.41925e-07	8.78385e-05	2.44101e-05	9.11672e-05	15.5305
1.63271	11219.5	2209.15	11434.9	-11.1392	23.1144	0.00054477	-7.69391e-05	44.1252	1.64692	1	14	0.0103299	9.03365e-07	8.58039e-05	1.6895e-05	8.74514e-05	11.1392
1.10206	11676.1	1568.43	11781	-7.65067	26.9634	0.000546954	-8.17226e-05	92.0766	1.632	1	14	0.0103338	8.77163e-07	8.41271e-05	1.13007e-05	8.48828e-05	7.65067
0.745609	11933	1011.46	11975.8	-4.8449	32.6351	0.000544895	-9.13889e-05	211.038	1.50539	1	14	0.0103315	8.62704e-07	8.32037e-05	7.05248e-06	8.3502e-05	4.8449
0.503902	12098.9	546.373	12111.3	-2.58565	41.011	0.000549413	-0.000102933	578.075	1.17648	1	14	0.0103309	8.53001e-07	8.24837e-05	3.72486e-06	8.25677e-05	2.58565
0.340103	12243.8	171.022	12245	-0.800256	53.4044	0.000548834	-0.000117793	2736.27	0.533756	1	14	0.0103324	8.43802e-07	8.1658e-05	1.1406e-06	8.16659e-05	0.800256
0.230213	12394	-71.6381	12394.2	0.331169	71.6976	0.000541649	-0.000140203	-9650.43	-0.3224	1	14	0.0103316	8.33578e-07	8.06812e-05	-4.66341e-07	8.06826e-05	-0.331169
0.155473	12530	-242.637	12532.3	1.10937	98.7689	0.000536562	-0.000165375	-4218.99	-1.58147	1	14	0.010333	8.2451e-07	7.97787e-05	-1.54488e-06	7.97936e-05	-1.10937
0.105049	12736.6	-373.49	12742.1	1.67967	138.818	0.000537828	-0.000189772	-4056.48	-3.4852	1	14	0.0103318	8.1084e-07	7.84466e-05	-2.30038e-06	7.84803e-05	-1.67967
0.0710227	13034.8	-505.053	13044.6	2.21889	198.039	0.000537996	-0.000214866	-4436.97	-6.65114	1	14	0.010332	7.92047e-07	7.66025e-05	-2.96807e-06	7.66599e-05	-2.21889
0.0479883	13504.4	-619.222	13518.5	2.62537	285.669	0.000539284	-0.000239466	-5355.97	-11.2375	1	14	0.0103318	7.64271e-07	7.38948e-05	-3.38833e-06	7.39724e-05	-2.62537
0.0324439	14095.2	-640.946	14109.8	2.60359	415.269	0.000535886	-0.000259732	-7653.6	-15.7931	1	14	0.0103332	7.32342e-07	7.07996e-05	-3.21944e-06	7.08728e-05	-2.60359
0.0219206	14769.1	-802.116	14790.9	3.1087	607.07	0.000537154	-0.00026047	-9051.72	-26.6205	1	14	0.0103314	6.98495e-07	6.75097e-05	-3.66647e-06	6.76092e-05	-3.1087
0.0148076	15748	-933.711	15775.7	3.39313	890.986	0.000538804	-0.000233388	-11511.2	-40.3247	1	14	0.010332	6.54929e-07	6.32775e-05	-3.75177e-06	6.33887e-05	-3.39313
0.0100006	16830.1	-934.138	16856	3.17689	1311.36	0.000537107	-0.000173436	-17036.5	-52.3233	1	14	0.010333	6.13014e-07	5.92349e-05	-3.28778e-06	5.93261e-05	-3.17689

File: 0708_01_EIS_0.5MTFSI_SymCell_OutsideGB_unsanded_40C_C04_C05.mpt
EC-Lab ASCII FILE
Nb header lines : 62

Potentio Electrochemical Impedance Spectroscopy

Run on channel : 5 (SN 35518)
User :
CE vs. WE compliance from -10 V to 10 V
Electrode connection : standard
Ewe ctrl range : min = -5.00 V, max = 5.00 V
Safety Limits :
	Do not start on E overload
Acquisition started on : 07/09/2023 15:26:24
Technique started on : 07/09/2023 15:26:25
Saved on :
	File : 0708_01_EIS_0.5MTFSI_SymCell_OutsideGB_unsanded_40C_C04_C05.mpr
	Directory : C:\Users\CESL\Documents\EC-Lab\Data\PhD\Leifer\Results\Zn Ion GPE\2023\0708\
	Host : 10.110.196.171
Device : VSP (SN 1724172417241724)
Address : USB
EC-Lab for windows v11.16 (software)
Internet server v11.16 (firmware)
Command interpretor v11.16 (firmware)
Electrode material : Au/Pd
Initial state :
Electrolyte : NaCl (0.2M)
Comments : Fe(CN)63-/Fe(CN)64- 5.10-3 M
Reference electrode : SCE Saturated Calomel Electrode (0.241 V)
Electrode surface area : 0.001 cm²
Characteristic mass : 0.001 g
Equivalent Weight : 0.000 g/eq.
Density : 0.000 g/cm3
Cycle Definition : Charge/Discharge alternance
Mode                Single sine
E (V)               0.0000
vs.                 Eoc
tE (h:m:s)          0:00:0.0000
record              0
dI                  0.000
unit dI             mA
dt (s)              0.000
fi                  1.000
unit fi             MHz
ff                  10.000
unit ff             mHz
Nd                  6
Points              per decade
spacing             Logarithmic
Va (mV)             10.0
pw                  0.10
Na                  2
corr                1
E range min (V)     -5.000
E range max (V)     5.000
I Range             Auto
Bandwidth           5
nc cycles           0
goto Ns'            0
nr cycles           0
inc. cycle          0

freq/Hz	Re(Z)/Ohm	-Im(Z)/Ohm	|Z|/Ohm	Phase(Z)/deg	time/s	<Ewe>/V	<I>/mA	Cs/µF	Cp/µF	cycle number	I Range	|Ewe|/V	|I|/A	Re(Y)/Ohm-1	Im(Y)/Ohm-1	|Y|/Ohm-1	Phase(Y)/deg
1.00002e+06	-1.61033	4.72896	4.99562	-108.805	1.9741	0.00419546	0.0654151	0.0336547	0.0301577	1	9	0.000219946	4.40277e-05	-0.064526	0.18949	0.200175	108.805
675752	621.406	-15.0435	621.589	1.38679	3.26508	0.00390416	-2.23986e-05	-0.0156561	-9.17012e-06	1	12	0.000330215	5.31244e-07	0.00160831	-3.89352e-05	0.00160878	-1.38679
456640	32.836	7.5577	33.6945	-12.9618	4.1301	0.00410079	0.0127408	0.0461164	0.00232016	1	10	0.00796419	0.000236365	0.0289222	0.00665689	0.0296784	12.9618
308574	23.6492	8.64144	25.1785	-20.0724	4.67108	0.00398773	0.0120747	0.0596863	0.00703052	1	10	0.0101459	0.00040296	0.037304	0.013631	0.0397164	20.0724
208525	21.721	11.1244	24.404	-27.1192	5.21208	0.00402106	0.0121344	0.0686095	0.0142566	1	10	0.0102343	0.000419369	0.0364719	0.0186791	0.0409769	27.1192
140908	21.8066	15.0388	26.4895	-34.5918	5.7531	0.00403055	0.0118471	0.0751054	0.0242075	1	10	0.0102093	0.000385409	0.0310771	0.0214321	0.0377508	34.5918
95214.8	22.8119	20.5389	30.6958	-41.9985	6.16209	0.00401718	0.0115635	0.081384	0.0364364	1	10	0.0106473	0.000346864	0.0242106	0.0217981	0.0325778	41.9985
64345.7	24.7999	28.2699	37.6062	-48.741	6.5711	0.00403096	0.0121083	0.0874936	0.0494432	1	10	0.0103033	0.000273979	0.0175361	0.0199897	0.0265914	48.741
43476.5	27.5645	39.0124	47.7679	-54.7566	6.98009	0.00401142	0.0102781	0.0938344	0.0625887	1	10	0.0101544	0.000212577	0.0120803	0.0170974	0.0209346	54.7566
29384.8	31.9895	53.9851	62.7513	-59.3506	7.55208	0.00393702	0.000429672	0.100328	0.0742552	1	11	0.0101691	0.000162055	0.00812386	0.0137097	0.0159359	59.3506
19853.5	37.9841	74.7927	83.8853	-63.0759	7.9611	0.00394213	0.000453166	0.107182	0.0852061	1	11	0.0101353	0.000120823	0.00539797	0.0106289	0.011921	63.0759
13418	46.5848	103.272	113.293	-65.7204	8.23808	0.00394247	0.000505749	0.114855	0.0954358	1	11	0.0094336	8.32674e-05	0.00362944	0.00804596	0.00882669	65.7204
9082.03	58.5709	142.179	153.77	-67.6107	8.67532	0.0039368	0.000589472	0.123254	0.105372	1	11	0.00988547	6.42872e-05	0.00247706	0.00601297	0.0065032	67.6107
6140.96	75.3531	194.848	208.911	-68.8571	9.07863	0.00399928	0.00115913	0.133011	0.115706	1	11	0.00949283	4.54397e-05	0.00172655	0.00446451	0.00478673	68.8571
4141.32	98.5786	266.81	284.438	-69.7221	9.5447	0.00403097	0.000871969	0.144039	0.126738	1	11	0.00928898	3.26573e-05	0.00121845	0.00329781	0.0035157	69.7221
2797.31	131.441	366.306	389.175	-70.2605	10.2629	0.00397962	-2.40776e-05	0.155323	0.137605	1	12	0.0102676	2.6383e-05	0.000867846	0.00241855	0.00256954	70.2605
1890.6	176.661	501.898	532.081	-70.6086	10.7277	0.00398543	-4.53378e-05	0.167728	0.149238	1	12	0.00965853	1.81524e-05	0.000624001	0.0017728	0.00187941	70.6086
1287.12	239.417	682.341	723.125	-70.6653	11.1942	0.00398314	-3.07357e-05	0.181218	0.161353	1	12	0.0093835	1.29763e-05	0.000457855	0.00130489	0.00138289	70.6653
863.066	318.949	940.269	992.892	-71.2625	11.6612	0.00398294	3.41258e-05	0.196121	0.175883	1	12	0.00923277	9.29887e-06	0.000323532	0.00095378	0.00100716	71.2625
583.692	433.796	1276.97	1348.64	-71.237	12.1282	0.00398055	1.83113e-05	0.213528	0.191436	1	12	0.00917107	6.80023e-06	0.000238502	0.000702082	0.000741487	71.237
394.117	580.09	1765.32	1858.19	-71.8093	12.5952	0.00398599	7.47248e-05	0.228755	0.206462	1	12	0.00912833	4.91249e-06	0.000168003	0.000511263	0.000538159	71.8093
266.449	871.017	2367.83	2522.95	-69.8037	13.0587	0.00398342	-3.54169e-05	0.252264	0.222197	1	12	0.00911405	3.61245e-06	0.000136838	0.000371991	0.000396361	69.8037
180.058	1123.18	3305.75	3491.35	-71.2341	13.7767	0.00399272	2.57847e-06	0.267386	0.239713	1	13	0.0091802	2.62941e-06	9.21428e-05	0.000271196	0.000286422	71.2341
121.595	1554.48	4537.45	4796.34	-71.0891	14.2371	0.00399692	7.62705e-06	0.288464	0.258164	1	13	0.00913805	1.90521e-06	6.75718e-05	0.000197239	0.000208493	71.0891
82.2368	2157.14	6220.98	6584.37	-70.8759	14.6923	0.00399306	8.06718e-06	0.311096	0.277706	1	13	0.00912112	1.38527e-06	4.97566e-05	0.000143493	0.000151875	70.8759
55.5152	3161.11	8494.88	9063.98	-69.5888	15.1539	0.00399172	1.07304e-05	0.337482	0.296434	1	13	0.0091136	1.00548e-06	3.84771e-05	0.0001034	0.000110327	69.5888
37.5601	4620.75	11531.8	12423.1	-68.1642	15.6448	0.00399547	-1.43975e-06	0.367448	0.316614	1	13	0.00910867	7.33203e-07	2.99399e-05	7.47199e-05	8.04951e-05	68.1642
25.3653	7215.93	15422.9	17027.5	-64.9265	16.3539	0.00399807	1.21541e-06	0.406832	0.333769	1	14	0.00912122	5.35677e-07	2.48881e-05	5.31943e-05	5.87286e-05	64.9265
17.1327	11082.3	20039	22899.3	-61.0559	16.7678	0.00399362	1.39897e-06	0.463574	0.354998	1	14	0.00911409	3.98007e-07	2.11341e-05	3.82148e-05	4.36694e-05	61.0559
11.5912	17034.9	25121.9	30352.9	-55.8591	17.1773	0.00399289	3.30474e-06	0.546561	0.374405	1	14	0.0091055	2.99988e-07	1.84902e-05	2.72679e-05	3.29458e-05	55.8591
7.82815	25329.4	29675.1	39015.2	-49.5173	17.7593	0.00399417	7.3234e-07	0.685124	0.396355	1	14	0.00910164	2.33284e-07	1.66401e-05	1.9495e-05	2.5631e-05	49.5173
5.29302	35935.1	32497.9	48450.4	-42.1246	18.5957	0.0039937	1.03222e-06	0.925255	0.416272	1	14	0.00909993	1.87819e-07	1.53082e-05	1.3844e-05	2.06397e-05	42.1246
3.57551	47456.4	32376.4	57448.6	-34.3032	19.8103	0.00399805	2.97503e-06	1.37484	0.436668	1	14	0.00910693	1.58523e-07	1.43792e-05	9.81002e-06	1.74069e-05	34.3032
2.41723	57603.9	29321.3	64637.1	-26.9768	21.5875	0.00399649	4.28959e-06	2.24553	0.462084	1	14	0.00910252	1.40825e-07	1.37876e-05	7.0181e-06	1.5471e-05	26.9768
1.63271	66012.1	24556.2	70431.6	-20.405	24.1984	0.00399531	4.04433e-06	3.96963	0.482547	1	14	0.00910338	1.29251e-07	1.33073e-05	4.95025e-06	1.41982e-05	20.405
1.10206	71654.2	19567.9	74278.1	-15.2744	28.0475	0.00399589	5.08707e-06	7.38024	0.512199	1	14	0.00910397	1.22566e-07	1.29874e-05	3.54669e-06	1.34629e-05	15.2744
0.745609	75525.4	14692.6	76941.3	-11.0088	33.7182	0.00399649	6.42279e-06	14.5281	0.529773	1	14	0.00910398	1.18324e-07	1.27578e-05	2.48188e-06	1.29969e-05	11.0088
0.503902	77960.3	10385.3	78649	-7.58782	42.0941	0.00399808	7.17544e-06	30.4128	0.53028	1	14	0.00910457	1.15762e-07	1.26034e-05	1.67892e-06	1.27147e-05	7.58782
0.340103	79301.8	7029.35	79612.7	-5.06549	54.4875	0.00399973	9.44582e-06	66.5725	0.518992	1	14	0.00910295	1.1434e-07	1.25118e-05	1.10905e-06	1.25608e-05	5.06549
0.230213	80517.8	4087.23	80621.4	-2.90595	72.7808	0.00399982	1.22608e-05	169.146	0.43473	1	14	0.0091036	1.12918e-07	1.23877e-05	6.28823e-07	1.24037e-05	2.90595
0.155473	80988.8	1789.04	81008.6	-1.26546	99.8522	0.00399828	1.61962e-05	572.197	0.279077	1	14	0.00910319	1.12373e-07	1.23414e-05	2.7262e-07	1.23444e-05	1.26546
0.105049	80924.6	-239.082	80924.9	0.169273	139.902	0.00400073	2.48571e-05	-6336.97	-0.0553108	1	14	0.00910505	1.12512e-07	1.23571e-05	-3.65075e-08	1.23571e-05	-0.169273
0.0710227	79848.8	-3283.73	79916.2	2.35493	199.123	0.0040029	3.40911e-05	-682.426	-1.15218	1	14	0.00910516	1.13934e-07	1.25025e-05	-5.14159e-07	1.25131e-05	-2.35493
0.0479883	79078.6	-6826.49	79372.7	4.93385	286.754	0.00400471	4.72057e-05	-485.833	-3.59368	1	14	0.00910571	1.14721e-07	1.25521e-05	-1.08357e-06	1.25988e-05	-4.93385
0.0324439	77247.6	-10266.4	77926.8	7.57036	416.354	0.00400865	6.61653e-05	-477.827	-8.29334	1	14	0.00910437	1.16832e-07	1.27207e-05	-1.69061e-06	1.28326e-05	-7.57036
0.0219206	73369.3	-11929.6	74332.9	9.23527	608.156	0.00401295	9.41573e-05	-608.615	-15.6759	1	14	0.00910468	1.22485e-07	1.32786e-05	-2.15906e-06	1.3453e-05	-9.23527
0.0148076	66876.3	-13425.6	68210.6	11.3514	892.075	0.00400843	0.000119417	-800.572	-31.0146	1	14	0.0091038	1.33466e-07	1.43737e-05	-2.88557e-06	1.46605e-05	-11.3514
0.0100006	66700.8	-13372.5	68028.1	11.3367	1312.45	0.00402394	0.000117462	-1190.09	-45.9864	1	14	0.00910345	1.33819e-07	1.4413e-05	-2.88959e-06	1.46998e-05	-11.3367