Folder: PhD_Markup_Experiment/Python Codes/Alyssa_Old_Files/Functions.py/EIS Results/Blocking Cells/2023_06_21 (part 2)

File: 0614_01_EIS_0.5MTFSI_Blocking_Remelt_Initial_Test_6_21_23_C01.mpt
EC-Lab ASCII FILE
Nb header lines : 62

Potentio Electrochemical Impedance Spectroscopy

Run on channel : 1 (SN 35512)
User :
CE vs. WE compliance from -10 V to 10 V
Electrode connection : standard
Ewe ctrl range : min = -5.00 V, max = 5.00 V
Safety Limits :
	Do not start on E overload
Acquisition started on : 06/21/2023 16:20:26
Technique started on : 06/21/2023 16:20:28
Saved on :
	File : 0614_01_EIS_0.5MTFSI_Blocking_Remelt_Initial_Test_6_21_23_C01.mpr
	Directory : C:\Users\CESL\Documents\EC-Lab\Data\PhD\Leifer\Results\Zn Ion GPE\2023\0614\
	Host : 10.110.196.171
Device : VSP (SN 172417241724)
Address : USB
EC-Lab for windows v11.16 (software)
Internet server v11.16 (firmware)
Command interpretor v11.16 (firmware)
Electrode material : Au/Pd
Initial state :
Electrolyte : NaCl (0.2M)
Comments : Fe(CN)63-/Fe(CN)64- 5.10-3 M
Reference electrode : SCE Saturated Calomel Electrode (0.241 V)
Electrode surface area : 0.001 cm²
Characteristic mass : 0.001 g
Equivalent Weight : 0.000 g/eq.
Density : 0.000 g/cm3
Cycle Definition : Charge/Discharge alternance
Mode                Single sine
E (V)               0.0000
vs.                 Eoc
tE (h:m:s)          0:00:0.0000
record              0
dI                  0.000
unit dI             mA
dt (s)              0.000
fi                  1.000
unit fi             MHz
ff                  10.000
unit ff             mHz
Nd                  6
Points              per decade
spacing             Logarithmic
Va (mV)             10.0
pw                  0.10
Na                  2
corr                1
E range min (V)     -5.000
E range max (V)     5.000
I Range             Auto
Bandwidth           5
nc cycles           0
goto Ns'            0
nr cycles           0
inc. cycle          0

freq/Hz	Re(Z)/Ohm	-Im(Z)/Ohm	|Z|/Ohm	Phase(Z)/deg	time/s	<Ewe>/V	<I>/mA	Cs/µF	Cp/µF	cycle number	I Range	|Ewe|/V	|I|/A	Re(Y)/Ohm-1	Im(Y)/Ohm-1	|Y|/Ohm-1	Phase(Y)/deg
1.00002e+06	84.9617	12.563	85.8855	-8.41119	2.48809	-0.0904076	-0.00119154	0.0126683	0.00027106	1	11	0.000401458	4.67434e-06	0.0115182	0.00170315	0.0116434	8.41119
675752	65.0873	-0.0487576	65.0873	0.0429209	2.89708	-0.0909568	0.000275323	-4.83048	-2.71071e-06	1	11	0.00196607	3.02066e-05	0.015364	-1.15093e-05	0.015364	-0.0429209
456640	35.4031	-0.156827	35.4035	0.253805	3.30608	-0.0908591	0.000261344	-2.22241	-4.36089e-05	1	11	0.00604269	0.000170681	0.0282455	-0.000125121	0.0282458	-0.253805
308574	29.2347	0.86147	29.2474	-1.68787	4.00909	-0.0910468	0.0110052	0.598715	0.00051943	1	10	0.00909248	0.000310882	0.0341763	0.00100709	0.0341911	1.68787
208525	27.1136	1.05968	27.1343	-2.23815	4.55008	-0.0910562	0.0107367	0.720255	0.0010985	1	10	0.0101349	0.000373509	0.0368256	0.00143926	0.0368537	2.23815
140908	26.3664	1.32557	26.3997	-2.87813	5.09109	-0.091065	0.0102351	0.852081	0.00214828	1	10	0.0101239	0.000383486	0.0378315	0.00190198	0.0378793	2.87813
95214.8	26.011	1.77582	26.0716	-3.90562	5.50008	-0.0910486	0.0103377	0.941276	0.00436696	1	10	0.0106444	0.000408275	0.0382669	0.00261255	0.0383559	3.90562
64345.7	25.9222	2.43131	26.036	-5.35823	5.90909	-0.091077	0.0106342	1.01733	0.0088714	1	10	0.0104599	0.000401747	0.0382405	0.00358667	0.0384084	5.35823
43476.5	26.0582	3.31999	26.2688	-7.26076	6.3171	-0.0910606	0.0112476	1.10263	0.0176125	1	10	0.0103535	0.000394135	0.0377627	0.00481123	0.038068	7.26076
29384.8	26.286	4.62217	26.6893	-9.97302	6.72609	-0.0910698	0.0110891	1.1718	0.0351455	1	10	0.0102228	0.000383029	0.036902	0.00648891	0.0374682	9.97302
19853.5	26.5836	6.44598	27.354	-13.63	7.1351	-0.0910642	0.00994606	1.24364	0.0690607	1	10	0.0100237	0.000366443	0.0355282	0.00861486	0.0365578	13.63
13418	27.0174	9.1289	28.518	-18.6696	7.41208	-0.0910451	0.011712	1.29932	0.133142	1	10	0.0104319	0.000365799	0.0332205	0.0112248	0.0350656	18.6696
9082.03	27.5587	12.9206	30.4372	-25.1191	7.70934	-0.0910645	0.0100598	1.35629	0.244405	1	10	0.0105786	0.000347556	0.0297474	0.0139468	0.0328545	25.1191
6140.96	28.2839	18.3218	33.6996	-32.9345	8.11263	-0.0910782	0.00773076	1.41454	0.418121	1	10	0.0106239	0.000315252	0.0249051	0.0161331	0.0296739	32.9345
4141.32	29.4708	26.2266	39.4508	-41.6664	9.05367	-0.0910731	0.00124627	1.46534	0.647607	1	11	0.0102402	0.000259569	0.0189357	0.0168512	0.0253481	41.6664
2797.31	30.9516	37.5409	48.6551	-50.4953	9.51996	-0.0910683	0.00120433	1.51556	0.902249	1	11	0.0099225	0.000203935	0.0130745	0.015858	0.0205528	50.4953
1890.6	33.1839	53.7323	63.1532	-58.3014	9.98467	-0.0910707	0.00125839	1.56669	1.13413	1	11	0.0096229	0.000152374	0.00832025	0.0134724	0.0158345	58.3014
1287.12	36.2102	76.4349	84.5782	-64.6513	10.4512	-0.0910686	0.00114765	1.61775	1.32123	1	11	0.00942215	0.000111402	0.00506191	0.010685	0.0118234	64.6513
863.066	40.8281	110.135	117.459	-69.6597	10.9182	-0.0910747	0.001162	1.67437	1.47207	1	11	0.00931358	7.92924e-05	0.0029593	0.00798276	0.00851363	69.6597
583.692	47.4041	157.4	164.384	-73.2393	11.3852	-0.0910759	0.00109227	1.73233	1.58827	1	11	0.00924915	5.62656e-05	0.00175428	0.00582489	0.00608333	73.2393
394.117	57.2433	225.312	232.47	-75.7449	11.8522	-0.0910686	0.00107792	1.7923	1.68362	1	11	0.00923098	3.97082e-05	0.00105923	0.00416917	0.00430163	75.7449
266.449	72.1174	322.963	330.917	-77.4124	12.5676	-0.091076	7.43e-05	1.84949	1.76165	1	12	0.00932353	2.81749e-05	0.000658571	0.00294927	0.00302191	77.4124
180.058	94.1111	461.355	470.856	-78.4705	13.0327	-0.0910701	6.05362e-05	1.9159	1.83937	1	12	0.00925903	1.96643e-05	0.000424488	0.00208094	0.00212379	78.4705
121.595	127.853	658.541	670.837	-79.013	13.4931	-0.0910702	6.52171e-05	1.98756	1.91537	1	12	0.00922957	1.37583e-05	0.000284103	0.00146335	0.00149067	79.013
82.2368	177.483	933.639	950.359	-79.2366	13.9483	-0.091073	4.18858e-05	2.07288	2.00059	1	12	0.00921367	9.69494e-06	0.000196508	0.00103372	0.00105223	79.2366
55.5152	252.179	1327.63	1351.36	-79.245	14.4099	-0.0910725	4.40491e-05	2.1594	2.0842	1	12	0.00919856	6.80687e-06	0.00013809	0.000726994	0.000739993	79.245
37.5601	356.847	1884.88	1918.36	-79.2796	15.1668	-0.091063	5.42155e-06	2.24807	2.17028	1	13	0.00923208	4.81248e-06	9.69664e-05	0.00051218	0.000521278	79.2796
25.3653	512.147	2664.04	2712.83	-79.118	15.6259	-0.0910724	5.43178e-06	2.35526	2.27132	1	13	0.00921463	3.39669e-06	6.95907e-05	0.000361991	0.000368619	79.118
17.1327	729.56	3749.43	3819.75	-78.989	16.0398	-0.091073	3.03722e-06	2.47759	2.38721	1	13	0.00920666	2.41028e-06	5.00025e-05	0.000256978	0.000261797	78.989
11.5912	1046.1	5284.55	5387.09	-78.8028	16.4493	-0.0910769	-1.01894e-06	2.59826	2.50028	1	13	0.00919318	1.70652e-06	3.60466e-05	0.000182095	0.000185629	78.8028
7.82815	1535.13	7457.52	7613.89	-78.3682	17.0303	-0.0910646	-4.18182e-06	2.72625	2.61543	1	13	0.00919732	1.20797e-06	2.64808e-05	0.000128642	0.000131339	78.3682
5.29302	2262.83	10475	10716.7	-77.8102	18.2937	-0.0910628	-2.72868e-06	2.87052	2.74254	1	14	0.00920797	8.5922e-07	1.9703e-05	9.12088e-05	9.33127e-05	77.8102
3.57551	3170.15	14654.1	14993.1	-77.7932	19.5083	-0.0910668	-5.55694e-06	3.03754	2.90174	1	14	0.00920131	6.13704e-07	1.41026e-05	6.51894e-05	6.66974e-05	77.7932
2.41723	4513.32	20549.7	21039.5	-77.6128	21.2856	-0.0910609	-4.83044e-06	3.20402	3.05658	1	14	0.00919806	4.3718e-07	1.01959e-05	4.64231e-05	4.75296e-05	77.6128
1.63271	6478	28717.4	29439	-77.2881	23.8952	-0.0910618	-4.44107e-06	3.39443	3.23007	1	14	0.00919539	3.12354e-07	7.47474e-06	3.3136e-05	3.39686e-05	77.2881
1.10206	9166.97	40227.7	41259	-77.1628	27.7455	-0.0910613	-4.53442e-06	3.58996	3.41274	1	14	0.00919717	2.22913e-07	5.38504e-06	2.36314e-05	2.42372e-05	77.1628
0.745609	13018.8	56146.5	57636.1	-76.9454	33.4179	-0.0910597	-4.18324e-06	3.80177	3.6078	1	14	0.00919784	1.59585e-07	3.91905e-06	1.69018e-05	1.73502e-05	76.9454
0.503902	18290	78512	80614.3	-76.8864	41.7936	-0.0910573	-4.11082e-06	4.02288	3.8158	1	14	0.00919723	1.14089e-07	2.81442e-06	1.20813e-05	1.24047e-05	76.8864
0.340103	26265.9	109284	112396	-76.4855	54.1871	-0.0910637	-4.01426e-06	4.28207	4.04822	1	14	0.00919882	8.1843e-08	2.07918e-06	8.65076e-06	8.89712e-06	76.4855
0.230213	37285	152298	156795	-76.2436	72.4803	-0.0910586	-3.70034e-06	4.53938	4.2827	1	14	0.00919765	5.86602e-08	1.51659e-06	6.19479e-06	6.37774e-06	76.2436
0.155473	54074.6	211667	218465	-75.6692	99.5516	-0.0910599	-3.62051e-06	4.83629	4.53999	1	14	0.00919887	4.21067e-08	1.13299e-06	4.43495e-06	4.57738e-06	75.6692
0.105049	76143.1	294585	304266	-75.5076	139.601	-0.0910577	-3.38566e-06	5.14301	4.82093	1	14	0.00919678	3.02261e-08	8.22475e-07	3.18202e-06	3.2866e-06	75.5076
0.0710227	105573	407396	420853	-75.4719	198.822	-0.0910597	-3.7228e-06	5.50055	5.15441	1	14	0.00919684	2.18529e-08	5.96062e-07	2.30015e-06	2.37613e-06	75.4719
0.0479883	153475	564769	585251	-74.7971	286.453	-0.0910612	-2.57235e-06	5.87237	5.46854	1	14	0.00919717	1.57149e-08	4.48077e-07	1.64887e-06	1.70867e-06	74.7971
0.0324439	213137	786592	814957	-74.839	416.052	-0.091063	-2.76267e-06	6.23644	5.80988	1	14	0.00919824	1.12868e-08	3.20915e-07	1.18435e-06	1.22706e-06	74.839
0.0219206	294123	1.10191e+06	1.14049e+06	-75.055	607.853	-0.0910596	-1.7869e-06	6.58903	6.15081	1	14	0.00919762	8.06462e-09	2.26124e-07	8.47157e-07	8.76817e-07	75.055
0.0148076	418106	1.52654e+06	1.58276e+06	-74.6828	891.771	-0.0910659	-9.78267e-07	7.04088	6.54956	1	14	0.00919504	5.80949e-09	1.669e-07	6.09364e-07	6.31807e-07	74.6828
0.0100006	601798	2.10701e+06	2.19127e+06	-74.0598	1312.14	-0.091072	-6.12441e-07	7.55311	6.98342	1	14	0.00919658	4.19692e-09	1.25331e-07	4.38809e-07	4.56357e-07	74.0598

File: 0614_01_EIS_0.5MTFSI_Blocking_Remelt_Initial_Test_6_21_23_Test2_C01.mpt
EC-Lab ASCII FILE
Nb header lines : 62

Potentio Electrochemical Impedance Spectroscopy

Run on channel : 1 (SN 35512)
User :
CE vs. WE compliance from -10 V to 10 V
Electrode connection : standard
Ewe ctrl range : min = -5.00 V, max = 5.00 V
Safety Limits :
	Do not start on E overload
Acquisition started on : 06/21/2023 17:11:31
Technique started on : 06/21/2023 17:11:33
Saved on :
	File : 0614_01_EIS_0.5MTFSI_Blocking_Remelt_Initial_Test_6_21_23_Test2_C01.mpr
	Directory : C:\Users\CESL\Documents\EC-Lab\Data\PhD\Leifer\Results\Zn Ion GPE\2023\0614\
	Host : 10.110.196.171
Device : VSP (SN 172417241724)
Address : USB
EC-Lab for windows v11.16 (software)
Internet server v11.16 (firmware)
Command interpretor v11.16 (firmware)
Electrode material : Au/Pd
Initial state :
Electrolyte : NaCl (0.2M)
Comments : Fe(CN)63-/Fe(CN)64- 5.10-3 M
Reference electrode : SCE Saturated Calomel Electrode (0.241 V)
Electrode surface area : 0.001 cm²
Characteristic mass : 0.001 g
Equivalent Weight : 0.000 g/eq.
Density : 0.000 g/cm3
Cycle Definition : Charge/Discharge alternance
Mode                Single sine
E (V)               0.0000
vs.                 Eoc
tE (h:m:s)          0:00:0.0000
record              0
dI                  0.000
unit dI             mA
dt (s)              0.000
fi                  1.000
unit fi             MHz
ff                  10.000
unit ff             mHz
Nd                  6
Points              per decade
spacing             Logarithmic
Va (mV)             10.0
pw                  0.10
Na                  2
corr                1
E range min (V)     -5.000
E range max (V)     5.000
I Range             Auto
Bandwidth           5
nc cycles           0
goto Ns'            0
nr cycles           0
inc. cycle          0

freq/Hz	Re(Z)/Ohm	-Im(Z)/Ohm	|Z|/Ohm	Phase(Z)/deg	time/s	<Ewe>/V	<I>/mA	Cs/µF	Cp/µF	cycle number	I Range	|Ewe|/V	|I|/A	Re(Y)/Ohm-1	Im(Y)/Ohm-1	|Y|/Ohm-1	Phase(Y)/deg
1.00002e+06	77.5227	1.67617	77.5408	-1.23864	2.48709	-0.00678509	-0.00127581	0.0949494	4.43681e-05	1	11	0.000437879	5.64708e-06	0.0128934	0.000278778	0.0128964	1.23864
675752	70.8025	-0.0936939	70.8026	0.0758202	2.8961	-0.00734295	0.000481892	-2.51375	-4.40196e-06	1	11	0.00212912	3.00713e-05	0.0141238	-1.86902e-05	0.0141238	-0.0758202
456640	38.44	-0.0990316	38.4401	0.147609	3.30508	-0.00722118	0.000680633	-3.51943	-2.33588e-05	1	11	0.0065061	0.000169253	0.0260144	-6.70201e-05	0.0260145	-0.147609
308574	31.7561	0.908667	31.7691	-1.63901	4.1401	-0.00742048	0.0120122	0.567618	0.00046436	1	10	0.00985298	0.000310143	0.0314642	0.000900315	0.0314771	1.63901
208525	29.4086	1.08217	29.4285	-2.10741	4.68108	-0.00743553	0.0119749	0.705285	0.000953719	1	10	0.0101393	0.000344541	0.0339576	0.00124957	0.0339806	2.10741
140908	28.5392	1.31633	28.5696	-2.64082	5.2221	-0.00742815	0.0114285	0.858061	0.00182156	1	10	0.0101105	0.000353892	0.0349651	0.00161272	0.0350023	2.64082
95214.8	28.2058	1.76434	28.2609	-3.57932	5.6311	-0.00742988	0.0120308	0.947402	0.00369253	1	10	0.0106161	0.000375644	0.0353155	0.00220906	0.0353845	3.57932
64345.7	28.1502	2.37315	28.2501	-4.81881	6.03909	-0.0074337	0.0128494	1.04226	0.00735506	1	10	0.0104548	0.000370082	0.035273	0.00297362	0.0353981	4.81881
43476.5	28.2385	3.24377	28.4242	-6.55287	6.4481	-0.00742071	0.0123124	1.12853	0.0146973	1	10	0.0103217	0.000363132	0.0349515	0.00401489	0.0351813	6.55287
29384.8	28.384	4.51783	28.7413	-9.04379	6.85709	-0.00744247	0.0119618	1.19886	0.029622	1	10	0.01023	0.000355933	0.0343606	0.00546911	0.0347931	9.04379
19853.5	28.7135	6.29517	29.3955	-12.3659	7.26608	-0.0074343	0.0118089	1.27343	0.0584021	1	10	0.0101154	0.000344114	0.0332295	0.00728527	0.0340188	12.3659
13418	29.1204	8.82158	30.4272	-16.8534	7.54309	-0.00744646	0.0118332	1.34458	0.11302	1	10	0.0105075	0.000345331	0.0314537	0.00952842	0.0328653	16.8534
9082.03	29.6544	12.5187	32.1885	-22.8872	7.83935	-0.00744735	0.0108393	1.39984	0.211736	1	10	0.0106821	0.000331862	0.0286212	0.0120825	0.031067	22.8872
6140.96	30.3821	17.7419	35.183	-30.2832	8.24265	-0.00745125	0.00890554	1.46078	0.371465	1	10	0.01073	0.000304976	0.0245443	0.0143329	0.0284228	30.2832
4141.32	31.4993	25.4306	40.4837	-38.9153	9.18368	-0.00744088	0.00143196	1.51121	0.596319	1	11	0.0101279	0.000250173	0.0192195	0.0155167	0.0247013	38.9153
2797.31	32.9585	36.375	49.0857	-47.821	9.64993	-0.00744678	0.00146645	1.56414	0.858958	1	11	0.00988424	0.000201367	0.0136791	0.0150971	0.0203725	47.821
1890.6	35.017	52.1264	62.7961	-56.1079	10.1147	-0.00744364	0.00141965	1.61496	1.11279	1	11	0.00961698	0.000153146	0.00888002	0.0132188	0.0159246	56.1079
1287.12	37.9035	74.0952	83.2273	-62.9079	10.5812	-0.00744513	0.00140064	1.66883	1.3227	1	11	0.00942608	0.000113257	0.00547202	0.0106969	0.0120153	62.9079
863.066	42.3478	106.891	114.974	-68.3877	11.0482	-0.00744842	0.00132457	1.72518	1.49113	1	11	0.00931969	8.10588e-05	0.00320353	0.00808613	0.00869759	68.3877
583.692	48.9413	152.901	160.543	-72.2509	11.5152	-0.0074385	0.00130481	1.78331	1.61758	1	11	0.00925962	5.7677e-05	0.00189887	0.00593239	0.00622888	72.2509
394.117	58.1167	218.613	226.207	-75.1127	11.9822	-0.00744599	0.00136018	1.84722	1.72529	1	11	0.00922181	4.07672e-05	0.00113577	0.00427235	0.00442074	75.1127
266.449	72.6839	314	322.303	-76.9669	12.6976	-0.00745287	0.000100149	1.90228	1.80554	1	12	0.00933534	2.89645e-05	0.000699698	0.00302275	0.00310267	76.9669
180.058	93.9522	448.385	458.123	-78.1658	13.1627	-0.00745084	9.9552e-05	1.97132	1.88841	1	12	0.0092622	2.02177e-05	0.000447655	0.00213643	0.00218282	78.1658
121.595	124.695	640.794	652.814	-78.9881	13.6231	-0.0074527	9.04692e-05	2.04261	1.96808	1	12	0.00922913	1.41375e-05	0.000292598	0.00150363	0.00153183	78.9881
82.2368	174.228	910.928	927.44	-79.1721	14.0783	-0.0074541	8.93501e-05	2.12457	2.04959	1	12	0.00921417	9.93506e-06	0.000202557	0.00105904	0.00107824	79.1721
55.5152	248.515	1294.21	1317.85	-79.1303	14.5399	-0.00744922	8.8604e-05	2.21516	2.13638	1	12	0.00920807	6.98719e-06	0.000143094	0.000745197	0.000758811	79.1303
37.5601	353.155	1835.43	1869.1	-79.1088	15.2958	-0.00744921	7.78905e-06	2.30864	2.22622	1	13	0.00923299	4.93981e-06	0.000101088	0.000525381	0.000535018	79.1088
25.3653	503.888	2590.21	2638.77	-78.9914	15.7549	-0.00744793	1.58938e-05	2.4224	2.33407	1	13	0.00921735	3.49305e-06	7.23655e-05	0.000371991	0.000378965	78.9914
17.1327	735.079	3659.18	3732.28	-78.6412	16.1688	-0.00746029	5.89797e-06	2.5387	2.44022	1	13	0.00920804	2.46713e-06	5.27698e-05	0.000262685	0.000267933	78.6412
11.5912	1060.01	5129.44	5237.83	-78.3241	16.5783	-0.00746788	3.79808e-06	2.67682	2.56719	1	13	0.00920256	1.75694e-06	3.86373e-05	0.000186968	0.000190919	78.3241
7.82815	1533.07	7195.99	7357.48	-77.9733	17.1593	-0.00745467	5.36364e-07	2.82534	2.70267	1	13	0.00920379	1.25094e-06	2.83206e-05	0.000132933	0.000135916	77.9733
5.29302	2207.92	10119.1	10357.1	-77.6913	18.4227	-0.00744834	-9.52245e-07	2.9715	2.83646	1	14	0.00920889	8.89135e-07	2.05827e-05	9.43324e-05	9.65518e-05	77.6913
3.57551	3147.28	14153.1	14498.8	-77.4629	19.6373	-0.00744142	3.31105e-08	3.14508	2.99688	1	14	0.00919984	6.34525e-07	1.49717e-05	6.73267e-05	6.89713e-05	77.4629
2.41723	4525.09	19792.1	20302.8	-77.1218	21.4145	-0.0074384	1.90289e-06	3.32666	3.16141	1	14	0.00920222	4.53248e-07	1.09778e-05	4.80153e-05	4.92542e-05	77.1218
1.63271	6421.25	27577.5	28315.2	-76.8926	24.0254	-0.0074426	5.84104e-07	3.53474	3.35296	1	14	0.00920137	3.24963e-07	8.00905e-06	3.43966e-05	3.53168e-05	76.8926
1.10206	8980.44	38567.8	39599.6	-76.8924	27.8744	-0.00744475	5.32978e-07	3.74447	3.55189	1	14	0.00920007	2.32328e-07	5.72686e-06	2.45949e-05	2.52528e-05	76.8924
0.745609	12656.4	53815.3	55283.6	-76.7656	33.5462	-0.00744463	9.87984e-07	3.96646	3.75857	1	14	0.009199	1.66397e-07	4.14112e-06	1.76082e-05	1.80886e-05	76.7656
0.503902	17899.9	75206.7	77307.5	-76.6121	41.922	-0.0074451	1.01115e-06	4.19969	3.97454	1	14	0.00920101	1.19018e-07	2.99508e-06	1.25838e-05	1.29354e-05	76.6121
0.340103	25269.1	104798	107801	-76.4435	54.3155	-0.00744272	8.84837e-07	4.46536	4.22001	1	14	0.00920085	8.535e-08	2.1744e-06	9.01787e-06	9.27631e-06	76.4435
0.230213	35305.9	145834	150047	-76.3907	72.6087	-0.00744516	7.2749e-07	4.74059	4.47812	1	14	0.00919913	6.13084e-08	1.56817e-06	6.47746e-06	6.66459e-06	76.3907
0.155473	50001.8	202937	209006	-76.1586	99.6799	-0.00744406	7.60804e-07	5.04434	4.75563	1	14	0.00919888	4.40124e-08	1.14463e-06	4.6456e-06	4.78454e-06	76.1586
0.105049	70129.6	282626	291197	-76.0644	139.729	-0.00744828	7.71843e-07	5.36062	5.04971	1	14	0.00920045	3.15953e-08	8.2704e-07	3.33302e-06	3.4341e-06	76.0644
0.0710227	97788.2	391286	403320	-75.9683	198.95	-0.00744243	1.10175e-06	5.72702	5.39035	1	14	0.0091982	2.28062e-08	6.01155e-07	2.40544e-06	2.47942e-06	75.9683
0.0479883	137569	544818	561918	-75.8288	286.581	-0.00745015	1.06457e-06	6.08742	5.72256	1	14	0.00919986	1.63723e-08	4.35688e-07	1.72546e-06	1.77962e-06	75.8288
0.0324439	190641	759819	783371	-75.9151	416.181	-0.00744638	4.16676e-07	6.45619	6.07383	1	14	0.00919833	1.1742e-08	3.10657e-07	1.23816e-06	1.27653e-06	75.9151
0.0219206	266931	1.06443e+06	1.09739e+06	-75.922	607.982	-0.00745223	3.17248e-07	6.82104	6.41747	1	14	0.00920197	8.38533e-09	2.21655e-07	8.83885e-07	9.11254e-07	75.922
0.0148076	387185	1.49139e+06	1.54083e+06	-75.4465	891.9	-0.00745138	-1.57396e-07	7.20681	6.75175	1	14	0.00920004	5.97083e-09	1.63083e-07	6.28176e-07	6.49e-07	75.4465
0.0100006	563011	2.07928e+06	2.15416e+06	-74.8492	1312.27	-0.00745314	-2.87315e-07	7.65383	7.13101	1	14	0.00919901	4.27035e-09	1.21328e-07	4.48083e-07	4.64218e-07	74.8492