Folder: PhD_Markup_Experiment/Python Codes/EIS_Processing/0720_05_Plotting (part 2)

File: 0720_05_EIS_0.5MTFSI_Blocking_InsideGB_0hr_40C_0x_Thin_Sample_t2_C01.mpt
EC-Lab ASCII FILE
Nb header lines : 62

Potentio Electrochemical Impedance Spectroscopy

Run on channel : 1 (SN 35512)
User :
CE vs. WE compliance from -10 V to 10 V
Electrode connection : standard
Ewe ctrl range : min = -5.00 V, max = 5.00 V
Safety Limits :
	Do not start on E overload
Acquisition started on : 07/20/2023 18:46:40
Technique started on : 07/20/2023 18:46:42
Saved on :
	File : 0720_05_EIS_0.5MTFSI_Blocking_InsideGB_0hr_40C_0x_Thin_Sample_t2_C01.mpr
	Directory : C:\Users\CESL\Documents\EC-Lab\Data\PhD\Leifer\Results\Zn Ion GPE\2023\0720\
	Host : 10.110.196.171
Device : VSP (SN 17241724)
Address : USB
EC-Lab for windows v11.16 (software)
Internet server v11.16 (firmware)
Command interpretor v11.16 (firmware)
Electrode material : Au/Pd
Initial state :
Electrolyte : NaCl (0.2M)
Comments : Fe(CN)63-/Fe(CN)64- 5.10-3 M
Reference electrode : SCE Saturated Calomel Electrode (0.241 V)
Electrode surface area : 0.001 cm²
Characteristic mass : 0.001 g
Equivalent Weight : 0.000 g/eq.
Density : 0.000 g/cm3
Cycle Definition : Charge/Discharge alternance
Mode                Single sine
E (V)               0.0000
vs.                 Eoc
tE (h:m:s)          0:00:0.0000
record              0
dI                  0.000
unit dI             mA
dt (s)              0.000
fi                  1.000
unit fi             MHz
ff                  10.000
unit ff             mHz
Nd                  6
Points              per decade
spacing             Logarithmic
Va (mV)             10.0
pw                  0.10
Na                  2
corr                1
E range min (V)     -5.000
E range max (V)     5.000
I Range             Auto
Bandwidth           5
nc cycles           0
goto Ns'            0
nr cycles           0
inc. cycle          0

freq/Hz	Re(Z)/Ohm	-Im(Z)/Ohm	|Z|/Ohm	Phase(Z)/deg	time/s	<Ewe>/V	<I>/mA	Cs/µF	Cp/µF	cycle number	I Range	|Ewe|/V	|I|/A	Re(Y)/Ohm-1	Im(Y)/Ohm-1	|Y|/Ohm-1	Phase(Y)/deg
1.00002e+06	-258.018	-39.7722	261.065	171.237	2.48708	-0.0276736	0.00207068	-0.00400158	-9.2874e-05	1	11	0.00100175	3.83715e-06	-0.00378575	-0.000583556	0.00383046	-171.237
675752	186.43	-16.4168	187.152	5.03242	2.89608	-0.0283792	0.000877877	-0.0143464	-0.000110391	1	11	0.0047959	2.56257e-05	0.00532267	-0.000468707	0.00534326	-5.03242
456640	99.923	-6.01059	100.104	3.44232	3.30509	-0.0283664	0.000859981	-0.0579867	-0.000209056	1	11	0.0102225	0.000102119	0.00997163	-0.000599816	0.00998965	-3.44232
308574	82.2753	-3.2845	82.3409	2.28608	3.84608	-0.0284905	0.00107755	-0.157033	-0.000249861	1	11	0.0100976	0.000122631	0.012135	-0.000484438	0.0121446	-2.28608
208525	75.9021	-1.55907	75.9181	1.17672	4.25508	-0.028506	0.00112863	-0.489547	-0.000206461	1	11	0.0108683	0.000143158	0.0131693	-0.000270506	0.0131721	-1.17672
140908	73.2354	-0.416529	73.2365	0.325868	4.66408	-0.0285132	0.00107848	-2.71168	-8.77149e-05	1	11	0.0107962	0.000147415	0.0136542	-7.76586e-05	0.0136544	-0.325868
95214.8	72.1866	0.635002	72.1894	-0.504	5.0731	-0.0285022	0.000981162	2.63233	0.000203678	1	11	0.0106215	0.000147134	0.0138519	0.000121851	0.0138525	0.504
64345.7	71.6818	1.62683	71.7002	-1.30012	5.48209	-0.0284981	0.00110197	1.5204	0.000782714	1	11	0.0105334	0.000146909	0.0139434	0.000316448	0.013947	1.30012
43476.5	71.7703	2.75113	71.823	-2.19521	5.89108	-0.0284799	0.00110328	1.33062	0.00195231	1	11	0.0104589	0.000145621	0.0139129	0.000533314	0.0139231	2.19521
29384.8	71.8744	4.30396	72.0031	-3.42688	6.30009	-0.0285176	0.000988247	1.25843	0.00449638	1	11	0.0104048	0.000144504	0.0138634	0.000830167	0.0138883	3.42688
19853.5	72.252	6.13104	72.5116	-4.85029	6.7091	-0.0284988	0.00111726	1.30752	0.00934764	1	11	0.0102979	0.000142017	0.0137415	0.00116605	0.0137909	4.85029
13418	72.7054	8.78124	73.2338	-6.88673	7.11808	-0.0284924	0.00104418	1.35076	0.0194208	1	11	0.0100801	0.000137643	0.0135564	0.00163732	0.0136549	6.88673
9082.03	73.3126	12.4798	74.3672	-9.66072	7.41535	-0.0285121	0.000927656	1.4042	0.0395442	1	11	0.0107752	0.000144891	0.0132561	0.00225655	0.0134468	9.66072
6140.96	74.1403	17.6851	76.2204	-13.4164	8.00862	-0.0285053	0.000831829	1.46547	0.078895	1	11	0.0101271	0.000132867	0.0127618	0.00304414	0.0131198	13.4164
4141.32	75.4175	25.1436	79.4984	-18.438	8.47469	-0.0284856	0.00129996	1.52846	0.152895	1	11	0.0102555	0.000129002	0.0119331	0.00397842	0.0125789	18.438
2797.31	77.218	35.5493	85.0081	-24.7202	8.94094	-0.0284733	0.00115249	1.60047	0.279891	1	11	0.0102788	0.000120915	0.0106856	0.00491938	0.0117636	24.7202
1890.6	79.4946	50.3134	94.0788	-32.3304	9.40569	-0.0284793	0.00117934	1.67315	0.478541	1	11	0.0102574	0.000109029	0.0089816	0.0056846	0.0106294	32.3304
1287.12	82.8998	70.9592	109.122	-40.5623	9.87221	-0.0284829	0.00110085	1.74258	0.736864	1	11	0.0102183	9.36414e-05	0.00696194	0.00595916	0.00916407	40.5623
863.066	87.1319	101.684	133.909	-49.407	10.3392	-0.0284807	0.00110719	1.81353	1.04571	1	11	0.0101642	7.59038e-05	0.00485914	0.00567066	0.00746777	49.407
583.692	93.3964	144.794	172.302	-57.1767	10.8062	-0.0284735	0.00121159	1.88316	1.32985	1	11	0.0101369	5.88323e-05	0.00314592	0.00487716	0.00580375	57.1767
394.117	102.188	206.825	230.693	-63.7069	11.2732	-0.0284782	0.00114075	1.9525	1.56939	1	11	0.0101105	4.38267e-05	0.00192014	0.0038863	0.00433477	63.7069
266.449	115.147	294.608	316.311	-68.652	11.9887	-0.0284972	7.3405e-05	2.0275	1.75882	1	12	0.0102196	3.23087e-05	0.00115087	0.00294453	0.00316145	68.652
180.058	133.568	424.842	445.344	-72.5472	12.4537	-0.0284958	0.00025638	2.08056	1.89341	1	12	0.0101609	2.28159e-05	0.000673458	0.00214208	0.00224546	72.5472
121.595	159	602.132	622.771	-75.208	12.9141	-0.0284995	3.78405e-06	2.17376	2.03207	1	12	0.0101197	1.62494e-05	0.000409958	0.00155251	0.00160573	75.208
82.2368	189.419	859.362	879.991	-77.5697	13.3693	-0.0284949	9.41619e-05	2.25205	2.1477	1	12	0.010096	1.14729e-05	0.000244607	0.00110974	0.00113638	77.5697
55.5152	266.021	1211.54	1240.4	-77.6159	13.8309	-0.0285004	8.00997e-05	2.36631	2.25747	1	12	0.0100836	8.1293e-06	0.000172899	0.000787433	0.000806191	77.6159
37.5601	332.849	1756.81	1788.06	-79.2718	14.5867	-0.0284937	-3.14949e-06	2.41196	2.32838	1	13	0.0101208	5.66022e-06	0.000104108	0.00054949	0.000559265	79.2718
25.3653	450.046	2503.6	2543.73	-79.8094	15.0459	-0.0285005	1.15766e-05	2.5062	2.42775	1	13	0.0100933	3.96792e-06	6.95529e-05	0.000386922	0.000393123	79.8094
17.1327	641.382	3604.29	3660.91	-79.9099	15.4609	-0.0285053	1.8555e-05	2.57736	2.49825	1	13	0.0100891	2.7559e-06	4.78561e-05	0.000268931	0.000273156	79.9099
11.5912	892.148	5137.54	5214.42	-80.1487	15.8703	-0.0285108	-1.31545e-06	2.67261	2.59437	1	13	0.010086	1.93425e-06	3.28114e-05	0.000188948	0.000191776	80.1487
7.82815	1313.31	7216.06	7334.59	-79.6852	16.4523	-0.0284932	-1.14111e-06	2.81748	2.72715	1	13	0.0100835	1.37479e-06	2.44126e-05	0.000134137	0.00013634	79.6852
5.29302	1950.74	10305	10488	-79.2807	17.7157	-0.0284949	2.17214e-06	2.91789	2.81694	1	14	0.0100892	9.61973e-07	1.77343e-05	9.36831e-05	9.53469e-05	79.2807
3.57551	2945.3	14510.8	14806.7	-78.5264	18.9304	-0.028487	5.59092e-08	3.06754	2.94617	1	14	0.0100866	6.81216e-07	1.34343e-05	6.61874e-05	6.75371e-05	78.5264
2.41723	4457.02	20379	20860.7	-77.6633	20.7075	-0.0284827	2.77324e-06	3.23087	3.08338	1	14	0.0100852	4.83454e-07	1.02421e-05	4.68301e-05	4.79371e-05	77.6633
1.63271	6655.53	28522.7	29288.9	-76.8655	23.3184	-0.0284837	1.91482e-06	3.4176	3.24113	1	14	0.0100849	3.44325e-07	7.75847e-06	3.32494e-05	3.41426e-05	76.8655
1.10206	10414.5	39609.5	40955.8	-75.2687	27.1674	-0.0284876	2.51229e-06	3.64599	3.41024	1	14	0.0100806	2.46134e-07	6.20879e-06	2.3614e-05	2.44166e-05	75.2687
0.745609	15160	54741.8	56802.2	-74.5207	32.8392	-0.0284861	2.07659e-06	3.89933	3.62158	1	14	0.0100804	1.77464e-07	4.69861e-06	1.69664e-05	1.7605e-05	74.5207
0.503902	23099.5	75178.5	78647.3	-72.9198	41.215	-0.0284917	2.14515e-06	4.20127	3.83884	1	14	0.01008	1.28167e-07	3.73453e-06	1.21542e-05	1.2715e-05	72.9198
0.340103	33307.1	102185	107476	-71.9466	53.6085	-0.0284897	1.89783e-06	4.57956	4.13974	1	14	0.0100812	9.37997e-08	2.88345e-06	8.84632e-06	9.30439e-06	71.9466
0.230213	47763.4	137511	145570	-70.8457	71.9017	-0.0284903	2.0016e-06	5.02753	4.48627	1	14	0.0100829	6.9265e-08	2.254e-06	6.48925e-06	6.86956e-06	70.8457
0.155473	67787.1	186237	198190	-69.9993	98.973	-0.0284897	1.9068e-06	5.49669	4.85365	1	14	0.0100818	5.08695e-08	1.72578e-06	4.74136e-06	5.04567e-06	69.9993
0.105049	96084.9	251758	269471	-69.1104	139.022	-0.0284914	2.08034e-06	6.01789	5.25277	1	14	0.0100798	3.74059e-08	1.32322e-06	3.46705e-06	3.71098e-06	69.1104
0.0710227	138831	337527	364964	-67.6417	198.243	-0.0284944	2.35922e-06	6.63918	5.67847	1	14	0.0100811	2.76222e-08	1.04229e-06	2.53401e-06	2.74e-06	67.6417
0.0479883	197956	452252	493679	-66.3604	285.874	-0.0284907	2.15384e-06	7.33338	6.15427	1	14	0.010081	2.04202e-08	8.12233e-07	1.85563e-06	2.02561e-06	66.3604
0.0324439	287382	600469	665697	-64.4244	415.474	-0.0284907	1.80817e-06	8.16951	6.64699	1	14	0.0100825	1.51457e-08	6.48497e-07	1.355e-06	1.50219e-06	64.4244
0.0219206	413236	789124	890776	-62.3606	607.275	-0.0284895	1.94461e-06	9.20074	7.22066	1	14	0.0100826	1.13189e-08	5.20789e-07	9.94509e-07	1.12262e-06	62.3606
0.0148076	584915	1.02381e+06	1.17911e+06	-60.2601	891.193	-0.0284853	1.96381e-06	10.4983	7.91485	1	14	0.0100809	8.54956e-09	4.20709e-07	7.3639e-07	8.48096e-07	60.2601
0.0100006	838822	1.29952e+06	1.54673e+06	-57.1584	1311.57	-0.0284813	2.50605e-06	12.2464	8.64462	1	14	0.0100803	6.51715e-09	3.50622e-07	5.43192e-07	6.46524e-07	57.1584

File: 0720_05_EIS_0.5MTFSI_Blocking_InsideGB_0hr_60C_0x_Thin_Sample_t2_C01.mpt
EC-Lab ASCII FILE
Nb header lines : 62

Potentio Electrochemical Impedance Spectroscopy

Run on channel : 1 (SN 35512)
User :
CE vs. WE compliance from -10 V to 10 V
Electrode connection : standard
Ewe ctrl range : min = -5.00 V, max = 5.00 V
Safety Limits :
	Do not start on E overload
Acquisition started on : 07/20/2023 19:23:25
Technique started on : 07/20/2023 19:23:27
Saved on :
	File : 0720_05_EIS_0.5MTFSI_Blocking_InsideGB_0hr_60C_0x_Thin_Sample_t2_C01.mpr
	Directory : C:\Users\CESL\Documents\EC-Lab\Data\PhD\Leifer\Results\Zn Ion GPE\2023\0720\
	Host : 10.110.196.171
Device : VSP (SN 17241724)
Address : USB
EC-Lab for windows v11.16 (software)
Internet server v11.16 (firmware)
Command interpretor v11.16 (firmware)
Electrode material : Au/Pd
Initial state :
Electrolyte : NaCl (0.2M)
Comments : Fe(CN)63-/Fe(CN)64- 5.10-3 M
Reference electrode : SCE Saturated Calomel Electrode (0.241 V)
Electrode surface area : 0.001 cm²
Characteristic mass : 0.001 g
Equivalent Weight : 0.000 g/eq.
Density : 0.000 g/cm3
Cycle Definition : Charge/Discharge alternance
Mode                Single sine
E (V)               0.0000
vs.                 Eoc
tE (h:m:s)          0:00:0.0000
record              0
dI                  0.000
unit dI             mA
dt (s)              0.000
fi                  1.000
unit fi             MHz
ff                  10.000
unit ff             mHz
Nd                  6
Points              per decade
spacing             Logarithmic
Va (mV)             10.0
pw                  0.10
Na                  2
corr                1
E range min (V)     -5.000
E range max (V)     5.000
I Range             Auto
Bandwidth           5
nc cycles           0
goto Ns'            0
nr cycles           0
inc. cycle          0

freq/Hz	Re(Z)/Ohm	-Im(Z)/Ohm	|Z|/Ohm	Phase(Z)/deg	time/s	<Ewe>/V	<I>/mA	Cs/µF	Cp/µF	cycle number	I Range	|Ewe|/V	|I|/A	Re(Y)/Ohm-1	Im(Y)/Ohm-1	|Y|/Ohm-1	Phase(Y)/deg
1.00002e+06	-76.7614	18.7764	79.0245	-166.255	2.63909	-0.0413752	0.000705983	0.00847619	0.00047852	1	11	0.000321283	4.06561e-06	-0.0122919	0.00300669	0.0126543	166.255
675752	50.3379	-11.9801	51.7439	13.387	3.04808	-0.0419719	0.000229088	-0.0196595	-0.00105384	1	11	0.00160656	3.10484e-05	0.0188008	-0.00447448	0.019326	-13.387
456640	27.7591	-3.80894	28.0192	7.81301	3.75108	-0.0418508	0.0109195	-0.0915043	-0.00169098	1	10	0.00880916	0.000314397	0.0353585	-0.00485169	0.0356898	-7.81301
308574	22.9932	-1.67179	23.0539	4.15855	4.29209	-0.0420928	0.0112532	-0.308517	-0.00162239	1	10	0.0101429	0.000439967	0.0432625	-0.00314554	0.0433767	-4.15855
208525	21.316	-0.66417	21.3263	1.78467	4.83308	-0.0420738	0.0107255	-1.14916	-0.00111458	1	10	0.0101454	0.000475721	0.0468677	-0.00146032	0.0468904	-1.78467
140908	20.6668	0.0761547	20.667	-0.211127	5.37308	-0.0420761	0.0116859	14.8316	0.000201385	1	10	0.0101064	0.000489014	0.0483861	0.000178297	0.0483864	0.211127
95214.8	20.4653	0.757533	20.4793	-2.11986	5.78209	-0.0420733	0.0104458	2.20655	0.00301915	1	10	0.0107096	0.000522948	0.0487963	0.00180622	0.0488297	2.11986
64345.7	20.4293	1.46946	20.4821	-4.11414	6.19008	-0.0420666	0.0109903	1.68323	0.00866383	1	10	0.0105347	0.00051434	0.0486974	0.00350275	0.0488232	4.11414
43476.5	20.5176	2.30639	20.6469	-6.41371	6.59908	-0.0420646	0.0110257	1.5872	0.0198057	1	10	0.0103439	0.000500993	0.0481303	0.00541035	0.0484335	6.41371
29384.8	20.7002	3.38382	20.9749	-9.28393	7.00809	-0.0420745	0.0106677	1.60063	0.0416586	1	10	0.0101934	0.000485982	0.0470515	0.00769142	0.047676	9.28393
19853.5	20.9539	4.8452	21.5068	-13.0198	7.41609	-0.042078	0.0107386	1.65452	0.0839738	1	10	0.0101035	0.000469784	0.0453016	0.0104752	0.0464969	13.0198
13418	21.299	6.93012	22.3981	-18.0235	7.6931	-0.0420461	0.0114155	1.71156	0.163853	1	10	0.010566	0.000471735	0.0424559	0.013814	0.0446467	18.0235
9082.03	21.7484	9.81311	23.8598	-24.2854	7.99033	-0.0420751	0.010099	1.78579	0.302071	1	10	0.0107485	0.000450486	0.0382026	0.0172374	0.0419114	24.2854
6140.96	22.384	13.9658	26.3835	-31.9608	8.39364	-0.0420872	0.00827526	1.85574	0.51998	1	10	0.010785	0.00040878	0.0321569	0.0200633	0.0379025	31.9608
4141.32	23.3459	19.8637	30.6528	-40.3926	8.8597	-0.042057	0.00975959	1.93473	0.812455	1	10	0.0107501	0.000350705	0.0248467	0.0211407	0.0326234	40.3926
2797.31	24.7081	28.3189	37.5826	-48.8954	9.79995	-0.0420704	0.00117468	2.00911	1.14073	1	11	0.0102474	0.000272663	0.0174931	0.0200495	0.0266081	48.8954
1890.6	26.5617	40.2933	48.2605	-56.6068	10.2647	-0.0420723	0.001283	2.08923	1.45636	1	11	0.00987145	0.000204545	0.0114044	0.0173001	0.0207209	56.6068
1287.12	29.1285	56.9493	63.9663	-62.9111	10.7312	-0.0420675	0.00128747	2.17127	1.72103	1	11	0.00961977	0.000150388	0.00711894	0.0139183	0.0156332	62.9111
863.066	32.7517	81.7057	88.0255	-68.1566	11.1982	-0.0420773	0.00109917	2.25696	1.94451	1	11	0.00947525	0.000107642	0.00422685	0.0105447	0.0113603	68.1566
583.692	37.919	116.079	122.116	-71.9096	11.6652	-0.0420687	0.00119388	2.34899	2.1225	1	11	0.00939307	7.69194e-05	0.00254281	0.00778416	0.00818896	71.9096
394.117	44.8404	165.556	171.521	-74.8452	12.1322	-0.04207	0.00111949	2.43922	2.27251	1	11	0.00935644	5.455e-05	0.00152418	0.00562745	0.0058302	74.8452
266.449	56.55	236.083	242.762	-76.5295	12.5957	-0.0420785	0.001228	2.53011	2.39282	1	11	0.00933648	3.84594e-05	0.000959561	0.00400594	0.00411926	76.5295
180.058	72.2718	336.788	344.455	-77.8885	13.3137	-0.0420779	-8.04018e-05	2.62453	2.50899	1	12	0.00940518	2.73045e-05	0.00060912	0.00283851	0.00290313	77.8885
121.595	91.1956	483.319	491.848	-79.3147	13.7741	-0.0420743	0.000148937	2.70813	2.61503	1	12	0.00935448	1.90191e-05	0.000376975	0.0019979	0.00203315	79.3147
82.2368	125.358	687.025	698.369	-79.6593	14.2293	-0.0420735	5.07082e-06	2.81696	2.7262	1	12	0.00933964	1.33735e-05	0.00025703	0.00140865	0.00143191	79.6593
55.5152	150.629	996.084	1007.41	-81.4008	14.6919	-0.0420748	1.38176e-05	2.87814	2.8138	1	12	0.00933892	9.27024e-06	0.000148422	0.000981487	0.000992646	81.4008
37.5601	215.693	1391.05	1407.68	-81.1861	15.1828	-0.0420741	-1.24604e-05	3.04614	2.97462	1	12	0.00932205	6.6223e-06	0.00010885	0.000702002	0.000710391	81.1861
25.3653	326.899	2005.59	2032.05	-80.7425	15.8919	-0.0420755	-2.12679e-05	3.12852	3.04756	1	13	0.00933885	4.59577e-06	7.91668e-05	0.000485703	0.000492113	80.7425
17.1327	465.789	2871.72	2909.25	-80.7869	16.3048	-0.0420832	7.64354e-06	3.23484	3.15192	1	13	0.00932812	3.20636e-06	5.50334e-05	0.000339297	0.000343731	80.7869
11.5912	679.65	4061.89	4118.36	-80.5011	16.7143	-0.0420877	2.02521e-05	3.38035	3.28829	1	13	0.00932461	2.26416e-06	4.00715e-05	0.000239486	0.000242815	80.5011
7.82815	1013	5800.9	5888.68	-80.0945	17.2963	-0.0420785	3.78409e-06	3.50482	3.4011	1	13	0.00932316	1.58323e-06	2.92127e-05	0.000167286	0.000169817	80.0945
5.29302	1460.8	8162.61	8292.29	-79.8536	18.1327	-0.0420719	1.7896e-06	3.68373	3.56941	1	13	0.00932183	1.12416e-06	2.12442e-05	0.000118708	0.000120594	79.8536
3.57551	2297.82	11590.9	11816.4	-78.7868	19.9553	-0.042071	-7.74529e-07	3.84031	3.69509	1	14	0.0093227	7.88961e-07	1.64567e-05	8.30124e-05	8.4628e-05	78.7868
2.41723	3506.53	16309.7	16682.4	-77.8663	21.7326	-0.0420714	-1.73311e-06	4.03697	3.85861	1	14	0.00932216	5.58802e-07	1.25997e-05	5.86043e-05	5.99434e-05	77.8663
1.63271	5343.17	22832.5	23449.4	-76.8289	24.3434	-0.0420711	-2.24447e-06	4.26932	4.04766	1	14	0.00932285	3.97574e-07	9.71711e-06	4.15233e-05	4.26451e-05	76.8289
1.10206	8159.01	31855.8	32884.1	-75.634	28.1925	-0.0420691	-1.92175e-06	4.53343	4.25434	1	14	0.00932241	2.83493e-07	7.54512e-06	2.9459e-05	3.04099e-05	75.634
0.745609	12704.1	43990.5	45788.2	-73.8917	33.8632	-0.0420712	-2.05551e-06	4.85233	4.47879	1	14	0.00932041	2.03555e-07	6.05952e-06	2.09823e-05	2.18397e-05	73.8917
0.503902	19717.8	60430.7	63566.2	-71.9291	42.2389	-0.0420656	-2.39437e-06	5.22656	4.72366	1	14	0.00932001	1.46619e-07	4.87985e-06	1.49556e-05	1.57316e-05	71.9291
0.340103	29775.2	81342.8	86621.1	-69.895	54.6323	-0.0420655	-1.84045e-06	5.75296	5.0732	1	14	0.00932049	1.07601e-07	3.96833e-06	1.08411e-05	1.15445e-05	69.895
0.230213	44403.3	109192	117875	-67.8708	72.9255	-0.0420708	-1.10282e-06	6.33139	5.43296	1	14	0.00932119	7.90767e-08	3.19573e-06	7.85861e-06	8.48354e-06	67.8708
0.155473	62168	142319	155305	-66.4033	99.9967	-0.0420709	-1.59343e-05	7.19287	6.04031	1	14	0.00932035	6.00132e-08	2.57748e-06	5.90056e-06	6.43894e-06	66.4033
0.105049	97890.9	188030	211986	-62.4979	140.046	-0.042071	-1.62038e-05	8.05751	6.33931	1	14	0.00932062	4.39682e-08	2.17836e-06	4.18422e-06	4.7173e-06	62.4979
0.0710227	138746	245262	281787	-60.5029	199.267	-0.042072	-1.01023e-05	9.13676	6.92167	1	14	0.00932146	3.30798e-08	1.74734e-06	3.08879e-06	3.54878e-06	60.5029
0.0479883	204581	312965	373899	-56.8279	286.898	-0.0420761	-4.68256e-06	10.5972	7.42459	1	14	0.00932105	2.49293e-08	1.46338e-06	2.23866e-06	2.67452e-06	56.8279
0.0324439	306571	388004	494502	-51.6868	416.498	-0.0420791	1.35767e-06	12.643	7.78369	1	14	0.0093215	1.88503e-08	1.2537e-06	1.58671e-06	2.02223e-06	51.6868
0.0219206	454508	507810	681505	-48.1703	608.299	-0.0420726	1.03344e-05	14.2977	7.93837	1	14	0.00931954	1.36749e-08	9.78597e-07	1.09336e-06	1.46734e-06	48.1703
0.0148076	643048	757741	993822	-49.6808	892.217	-0.0420678	2.57516e-05	14.1845	8.24591	1	14	0.00932227	9.38022e-09	6.51068e-07	7.67191e-07	1.00622e-06	49.6808
0.0100006	863425	751656	1.14477e+06	-41.0412	1312.59	-0.0420646	2.57354e-05	21.1726	9.12805	1	14	0.0093206	8.14193e-09	6.58857e-07	5.73569e-07	8.73541e-07	41.0412