Folder: PhD_Markup_Experiment/Python Codes/EIS_Processing/0720_05_Plotting

Note: README.md
# PhD_Markup_Experiment
This is my trial of notekeeping on Github. Let's see how it works out

## Installation

The repository includes the battery analysis package in
`Python_Codes/BLeifer_Battery_Analysis`. To install the required
dependencies, navigate to that folder and run:

```bash
pip install .
```

Additional optional features are available. Install them by passing one
of the extras:

```bash
pip install ".[biologic_mpr]"  # BioLogic .mpr file support
pip install ".[eis]"          # EIS tools
pip install ".[pybamm]"       # PyBAMM modeling
pip install ".[all]"          # everything
```

### Development setup

Install the dependencies needed for running the tests and style checks:

```bash
pip install -r requirements-dev.txt
```

The package requires a running MongoDB instance for data storage.

## License

This project is licensed under the [MIT License](LICENSE).

## Dashboard

A lightweight Dash application provides a simple interface for monitoring battery tests.
To run the dashboard locally, install `dash` and execute:

```bash
pip install dash dash-bootstrap-components
python -m dashboard.app
```

The app currently uses placeholder data but is structured for MongoDB integration
via the functions in `dashboard/data_access.py`.

File: 0720_05_EIS_0.5MTFSI_Blocking_InsideGB_0hr_25C_0x_Thin_Sample_C01.mpt
EC-Lab ASCII FILE
Nb header lines : 62

Potentio Electrochemical Impedance Spectroscopy

Run on channel : 1 (SN 35512)
User :
CE vs. WE compliance from -10 V to 10 V
Electrode connection : standard
Ewe ctrl range : min = -5.00 V, max = 5.00 V
Safety Limits :
	Do not start on E overload
Acquisition started on : 07/20/2023 18:05:59
Technique started on : 07/20/2023 18:06:01
Saved on :
	File : 0720_05_EIS_0.5MTFSI_Blocking_InsideGB_0hr_25C_0x_Thin_Sample_C01.mpr
	Directory : C:\Users\CESL\Documents\EC-Lab\Data\PhD\Leifer\Results\Zn Ion GPE\2023\0720\
	Host : 10.110.196.171
Device : VSP (SN 17241724)
Address : USB
EC-Lab for windows v11.16 (software)
Internet server v11.16 (firmware)
Command interpretor v11.16 (firmware)
Electrode material : Au/Pd
Initial state :
Electrolyte : NaCl (0.2M)
Comments : Fe(CN)63-/Fe(CN)64- 5.10-3 M
Reference electrode : SCE Saturated Calomel Electrode (0.241 V)
Electrode surface area : 0.001 cm²
Characteristic mass : 0.001 g
Equivalent Weight : 0.000 g/eq.
Density : 0.000 g/cm3
Cycle Definition : Charge/Discharge alternance
Mode                Single sine
E (V)               0.0000
vs.                 Eoc
tE (h:m:s)          0:00:0.0000
record              0
dI                  0.000
unit dI             mA
dt (s)              0.000
fi                  1.000
unit fi             MHz
ff                  10.000
unit ff             mHz
Nd                  6
Points              per decade
spacing             Logarithmic
Va (mV)             10.0
pw                  0.10
Na                  2
corr                1
E range min (V)     -5.000
E range max (V)     5.000
I Range             Auto
Bandwidth           5
nc cycles           0
goto Ns'            0
nr cycles           0
inc. cycle          0

freq/Hz	Re(Z)/Ohm	-Im(Z)/Ohm	|Z|/Ohm	Phase(Z)/deg	time/s	<Ewe>/V	<I>/mA	Cs/µF	Cp/µF	cycle number	I Range	|Ewe|/V	|I|/A	Re(Y)/Ohm-1	Im(Y)/Ohm-1	|Y|/Ohm-1	Phase(Y)/deg
1.00002e+06	274.391	-2216.39	2233.32	82.9427	2.81909	-0.0089242	0.000446367	-7.18066e-05	-7.07227e-05	1	12	0.00246804	1.1051e-06	5.50136e-05	-0.000444372	0.000447765	-82.9427
675752	1371.03	-14.8934	1371.11	0.622378	3.0961	-0.00978572	0.000133364	-0.0158139	-1.86588e-06	1	12	0.00919845	6.70877e-06	0.000729294	-7.9223e-06	0.000729337	-0.622378
456640	869.509	60.0679	871.581	-3.95186	3.50408	-0.00980778	0.000152667	0.00580234	2.75596e-05	1	12	0.01094	1.25519e-05	0.00114461	7.90727e-05	0.00114734	3.95186
308574	731.689	40.4316	732.805	-3.16283	3.91308	-0.00991075	0.000107515	0.0127567	3.88333e-05	1	12	0.0108903	1.48611e-05	0.00136254	7.52911e-05	0.00136462	3.16283
208525	687.986	26.6499	688.502	-2.2183	4.32209	-0.00991247	3.39225e-05	0.0286395	4.29087e-05	1	12	0.010765	1.56355e-05	0.00145134	5.62192e-05	0.00145243	2.2183
140908	657.028	22.089	657.399	-1.92554	4.73108	-0.00989285	7.17074e-05	0.0511337	5.77301e-05	1	12	0.0106127	1.61434e-05	0.00152029	5.11114e-05	0.00152115	1.92554
95214.8	649.911	15.1849	650.088	-1.33845	5.14008	-0.00990134	0.000109679	0.110079	6.00597e-05	1	12	0.0105419	1.6216e-05	0.00153783	3.59309e-05	0.00153825	1.33845
64345.7	650.146	13.4426	650.285	-1.1845	5.54808	-0.00991363	0.000170291	0.184	7.8628e-05	1	12	0.010603	1.63052e-05	0.00153746	3.1789e-05	0.00153779	1.1845
43476.5	642.71	10.5918	642.797	-0.94414	5.95608	-0.00990522	0.00023538	0.345618	9.38394e-05	1	12	0.0104412	1.62433e-05	0.00155549	2.56342e-05	0.0015557	0.94414
29384.8	638.866	7.87169	638.914	-0.705926	6.3651	-0.00988825	7.14463e-05	0.688066	0.000104443	1	12	0.0103536	1.62049e-05	0.00156504	1.92834e-05	0.00156515	0.705926
19853.5	628.248	10.568	628.337	-0.963701	6.77408	-0.00988895	7.74143e-05	0.758562	0.00021458	1	12	0.0103125	1.64124e-05	0.00159128	2.67674e-05	0.0015915	0.963701
13418	633.754	15.0937	633.934	-1.36432	7.18209	-0.00990102	0.00012389	0.785847	0.000445493	1	12	0.0101551	1.60192e-05	0.001577	3.75584e-05	0.00157745	1.36432
9082.03	632.258	15.8933	632.458	-1.43997	7.47934	-0.00991952	7.3759e-05	1.10261	0.000696288	1	12	0.0109892	1.73753e-05	0.00158063	3.97331e-05	0.00158113	1.43997
6140.96	630.523	16.2753	630.733	-1.47861	8.07265	-0.00990753	4.20912e-05	1.59241	0.00106028	1	12	0.0101261	1.60545e-05	0.00158493	4.09107e-05	0.00158546	1.47861
4141.32	628.557	35.8038	629.576	-3.26015	8.53871	-0.00987269	0.000140358	1.07338	0.00347147	1	12	0.0103397	1.64233e-05	0.0015858	9.033e-05	0.00158837	3.26015
2797.31	633.43	40.6371	634.732	-3.67072	9.00493	-0.00987579	0.000170105	1.40009	0.00573879	1	12	0.0104472	1.64592e-05	0.00157224	0.000100865	0.00157547	3.67072
1890.6	629.132	56.82	631.693	-5.16066	9.46867	-0.00987503	0.000107571	1.48156	0.011987	1	12	0.0104773	1.65861e-05	0.00157663	0.000142393	0.00158305	5.16066
1287.12	627.37	87.8341	633.488	-7.96982	9.93519	-0.00986574	2.46721e-05	1.40779	0.0270638	1	12	0.0104901	1.65592e-05	0.00156331	0.00021887	0.00157856	7.96982
863.066	636.13	122.664	647.848	-10.9143	10.4022	-0.00987324	4.53922e-05	1.50335	0.0538946	1	12	0.010511	1.62245e-05	0.00151565	0.00029226	0.00154357	10.9143
583.692	641.937	168.367	663.649	-14.6965	10.8692	-0.00988228	0.000121242	1.61949	0.104235	1	12	0.0105033	1.58266e-05	0.00145752	0.000382278	0.00150682	14.6965
394.117	649.637	241.532	693.084	-20.3949	11.3362	-0.00988166	6.58513e-05	1.67194	0.203047	1	12	0.0104877	1.5132e-05	0.00135238	0.000502808	0.00144283	20.3949
266.449	668.85	350.265	755.014	-27.6402	11.7997	-0.00989444	0.000144274	1.70533	0.367022	1	12	0.0104953	1.39008e-05	0.00117333	0.00061445	0.00132448	27.6402
180.058	679.015	492.975	839.098	-35.9802	12.2647	-0.00987911	0.000120104	1.79302	0.618882	1	12	0.0104842	1.24946e-05	0.000964393	0.000700163	0.00119176	35.9802
121.595	710.717	710.453	1004.92	-44.9893	12.7251	-0.00987415	0.000148396	1.84233	0.920824	1	12	0.0104808	1.04295e-05	0.000703777	0.000703515	0.000995105	44.9893
82.2368	768.935	1004.35	1264.9	-52.562	13.1803	-0.00986954	5.95474e-05	1.92695	1.21486	1	12	0.0104683	8.27598e-06	0.000480593	0.000627727	0.000790576	52.562
55.5152	813.52	1433.85	1648.56	-60.4308	13.6419	-0.00987663	0.000215984	1.99942	1.51253	1	12	0.0104778	6.35572e-06	0.000299337	0.000527589	0.000606591	60.4308
37.5601	939.878	2049.74	2254.95	-65.3668	14.3977	-0.00989425	9.30053e-06	2.06726	1.70812	1	13	0.0104943	4.6539e-06	0.000184841	0.000403111	0.000443469	65.3668
25.3653	1092.32	2915.75	3113.64	-69.4627	14.8568	-0.00989889	1.77476e-05	2.15194	1.8871	1	13	0.010486	3.36776e-06	0.000112671	0.000300755	0.000321167	69.4627
17.1327	1352.33	4144.55	4359.6	-71.9289	15.2698	-0.0098977	8.63005e-06	2.24139	2.02572	1	13	0.0104727	2.40222e-06	7.11526e-05	0.000218064	0.000229379	71.9289
11.5912	1707.88	5857.37	6101.28	-73.7445	15.6793	-0.00989528	3.76e-07	2.34416	2.16048	1	13	0.0104628	1.71486e-06	4.58791e-05	0.000157348	0.0001639	73.7445
7.82815	2279.16	8274.17	8582.34	-74.5995	16.2613	-0.00989022	4.41162e-06	2.45718	2.28389	1	13	0.0104646	1.21932e-06	3.09431e-05	0.000112335	0.000116518	74.5995
5.29302	3113.99	11663.2	12071.8	-75.0511	17.5247	-0.00988835	2.38355e-06	2.57809	2.40654	1	14	0.0104664	8.67013e-07	2.13686e-05	8.00344e-05	8.2838e-05	75.0511
3.57551	4321.79	16301.3	16864.4	-75.1513	18.7393	-0.00988397	1.88696e-06	2.73062	2.55129	1	14	0.0104637	6.20461e-07	1.51957e-05	5.73163e-05	5.92964e-05	75.1513
2.41723	6224.23	22723.8	23560.8	-74.6819	20.5165	-0.00987975	2.19399e-06	2.89748	2.69527	1	14	0.0104722	4.44476e-07	1.12126e-05	4.09355e-05	4.24433e-05	74.6819
1.63271	9102.07	31520.6	32808.4	-73.8931	23.1274	-0.00988035	1.20993e-06	3.09256	2.85453	1	14	0.0104627	3.18902e-07	8.45608e-06	2.92835e-05	3.048e-05	73.8931
1.10206	13295.9	43509.6	45495.8	-73.0076	26.9764	-0.00988931	1.99681e-06	3.31917	3.03569	1	14	0.0104702	2.30135e-07	6.42356e-06	2.10205e-05	2.19801e-05	73.0076
0.745609	19448.8	59563.1	62658	-71.9169	32.6482	-0.00988849	1.81875e-06	3.5837	3.23842	1	14	0.0104631	1.66987e-07	4.95382e-06	1.51714e-05	1.59597e-05	71.9169
0.503902	28442.2	80617	85487.2	-70.5668	41.024	-0.00988084	1.515e-06	3.91785	3.48416	1	14	0.0104629	1.22391e-07	3.8919e-06	1.10312e-05	1.16977e-05	70.5668
0.340103	41243.4	108435	116014	-69.1757	53.4173	-0.00988735	2.30542e-06	4.31558	3.77016	1	14	0.0104616	9.01751e-08	3.06431e-06	8.05657e-06	8.61965e-06	69.1757
0.230213	58705.1	144859	156302	-67.9394	71.7096	-0.00987876	2.43149e-06	4.7725	4.09927	1	14	0.0104637	6.69452e-08	2.40296e-06	5.92946e-06	6.39787e-06	67.9394
0.155473	81758	193832	210369	-67.1301	98.7819	-0.00988508	2.31327e-06	5.28129	4.4836	1	14	0.0104637	4.97397e-08	1.84742e-06	4.37987e-06	4.75354e-06	67.1301
0.105049	116531	256320	281566	-65.552	138.831	-0.00988399	2.74371e-06	5.91079	4.89835	1	14	0.0104609	3.71527e-08	1.46988e-06	3.23312e-06	3.55156e-06	65.552
0.0710227	162330	341766	378358	-64.5935	198.052	-0.00988145	2.62878e-06	6.55683	5.34989	1	14	0.0104633	2.76545e-08	1.13394e-06	2.38738e-06	2.643e-06	64.5935
0.0479883	229784	452494	507495	-63.0778	285.683	-0.00988641	2.53678e-06	7.32945	5.82684	1	14	0.0104629	2.06168e-08	8.92184e-07	1.75691e-06	1.97046e-06	63.0778
0.0324439	322304	597717	679077	-61.6653	415.283	-0.00988486	1.82849e-06	8.20713	6.35835	1	14	0.0104635	1.54085e-08	6.98921e-07	1.29616e-06	1.47259e-06	61.6653
0.0219206	455827	785388	908082	-59.8698	607.084	-0.00988878	1.63372e-06	9.2445	6.91516	1	14	0.0104622	1.15212e-08	5.52777e-07	9.52432e-07	1.10122e-06	59.8698
0.0148076	646398	1.03652e+06	1.22155e+06	-58.0512	891.002	-0.00989704	2.04455e-06	10.3695	7.46595	1	14	0.0104623	8.56472e-09	4.33186e-07	6.94625e-07	8.18629e-07	58.0512

File: 0720_05_EIS_0.5MTFSI_Blocking_InsideGB_0hr_25C_0x_Thin_Sample_t2_C01.mpt
EC-Lab ASCII FILE
Nb header lines : 62

Potentio Electrochemical Impedance Spectroscopy

Run on channel : 1 (SN 35512)
User :
CE vs. WE compliance from -10 V to 10 V
Electrode connection : standard
Ewe ctrl range : min = -5.00 V, max = 5.00 V
Safety Limits :
	Do not start on E overload
Acquisition started on : 07/20/2023 18:22:43
Technique started on : 07/20/2023 18:22:45
Saved on :
	File : 0720_05_EIS_0.5MTFSI_Blocking_InsideGB_0hr_25C_0x_Thin_Sample_t2_C01.mpr
	Directory : C:\Users\CESL\Documents\EC-Lab\Data\PhD\Leifer\Results\Zn Ion GPE\2023\0720\
	Host : 10.110.196.171
Device : VSP (SN 17241724)
Address : USB
EC-Lab for windows v11.16 (software)
Internet server v11.16 (firmware)
Command interpretor v11.16 (firmware)
Electrode material : Au/Pd
Initial state :
Electrolyte : NaCl (0.2M)
Comments : Fe(CN)63-/Fe(CN)64- 5.10-3 M
Reference electrode : SCE Saturated Calomel Electrode (0.241 V)
Electrode surface area : 0.001 cm²
Characteristic mass : 0.001 g
Equivalent Weight : 0.000 g/eq.
Density : 0.000 g/cm3
Cycle Definition : Charge/Discharge alternance
Mode                Single sine
E (V)               0.0000
vs.                 Eoc
tE (h:m:s)          0:00:0.0000
record              0
dI                  0.000
unit dI             mA
dt (s)              0.000
fi                  1.000
unit fi             MHz
ff                  10.000
unit ff             mHz
Nd                  6
Points              per decade
spacing             Logarithmic
Va (mV)             10.0
pw                  0.10
Na                  2
corr                1
E range min (V)     -5.000
E range max (V)     5.000
I Range             Auto
Bandwidth           5
nc cycles           0
goto Ns'            0
nr cycles           0
inc. cycle          0

freq/Hz	Re(Z)/Ohm	-Im(Z)/Ohm	|Z|/Ohm	Phase(Z)/deg	time/s	<Ewe>/V	<I>/mA	Cs/µF	Cp/µF	cycle number	I Range	|Ewe|/V	|I|/A	Re(Y)/Ohm-1	Im(Y)/Ohm-1	|Y|/Ohm-1	Phase(Y)/deg
1.00002e+06	-565.89	-70.1407	570.22	172.934	2.81908	-0.00745902	7.17822e-05	-0.00226904	-3.43319e-05	1	12	0.00110414	1.93633e-06	-0.00174039	-0.000215718	0.00175371	-172.934
675752	347.444	-6.35969	347.502	1.04864	3.22808	-0.00797843	-0.000115762	-0.0370337	-1.24037e-05	1	12	0.00344704	9.91947e-06	0.0028772	-5.26648e-05	0.00287768	-1.04864
456640	205.609	-3.915	205.646	1.09084	4.06309	-0.00804766	0.000873961	-0.0890255	-3.22653e-05	1	11	0.00995344	4.84008e-05	0.00486184	-9.25741e-05	0.00486272	-1.09084
308574	168.891	-3.04453	168.918	1.03274	4.6041	-0.00809186	0.000752406	-0.16941	-5.50335e-05	1	11	0.0100662	5.95921e-05	0.00591906	-0.0001067	0.00592002	-1.03274
208525	154.925	-1.3981	154.932	0.517042	5.01308	-0.00809801	0.000893536	-0.545914	-4.44548e-05	1	11	0.0107983	6.96975e-05	0.0064542	-5.82448e-05	0.00645446	-0.517042
140908	149.476	-0.199225	149.476	0.0763649	5.42208	-0.00808673	0.00107251	-5.66945	-1.00712e-05	1	11	0.0107274	7.17665e-05	0.00669003	-8.9166e-06	0.00669003	-0.0763649
95214.8	147.066	1.03217	147.069	-0.402121	5.83109	-0.00809519	0.000894842	1.61943	7.9767e-05	1	11	0.0105848	7.19712e-05	0.00679934	4.77208e-05	0.00679951	0.402121
64345.7	146.397	2.06361	146.412	-0.807587	6.24008	-0.00808393	0.000982279	1.19859	0.00023811	1	11	0.0104884	7.1636e-05	0.00682937	9.62667e-05	0.00683005	0.807587
43476.5	145.451	3.15816	145.485	-1.24386	6.64909	-0.00808716	0.000962703	1.15913	0.000546215	1	11	0.0103686	7.12693e-05	0.00687195	0.00014921	0.00687357	1.24386
29384.8	145.709	5.13109	145.799	-2.01681	7.05809	-0.00808024	0.000950771	1.05557	0.00130736	1	11	0.0102837	7.05331e-05	0.00685449	0.000241378	0.00685874	2.01681
19853.5	146.129	7.48569	146.321	-2.9325	7.46709	-0.00809275	0.000992719	1.0709	0.00280287	1	11	0.0101052	6.90621e-05	0.00682536	0.00034964	0.00683431	2.9325
13418	147.087	10.6043	147.469	-4.12362	7.74409	-0.00808714	0.000868927	1.11854	0.00578381	1	11	0.0108453	7.35429e-05	0.00676353	0.000487619	0.00678109	4.12362
9082.03	147.338	14.3601	148.036	-5.56668	8.18134	-0.00810728	0.000902299	1.22033	0.0114831	1	11	0.0100994	6.82223e-05	0.00672324	0.000655272	0.0067551	5.56668
6140.96	148.69	20.6621	150.119	-7.91121	8.58464	-0.00810905	0.000771422	1.25432	0.0237623	1	11	0.0102856	6.85161e-05	0.00659799	0.000916862	0.00666139	7.91121
4141.32	150.353	29.2362	153.169	-11.0039	9.0507	-0.0080775	0.000914976	1.3145	0.0478919	1	11	0.0103614	6.76468e-05	0.00640871	0.00124618	0.00652875	11.0039
2797.31	153.409	41.4716	158.915	-15.1274	9.51694	-0.00807224	0.000960093	1.37192	0.0934325	1	11	0.0103936	6.54032e-05	0.0060746	0.00164217	0.00629266	15.1274
1890.6	156.474	58.7648	167.144	-20.584	9.98169	-0.00807526	0.000874893	1.43252	0.177073	1	11	0.0103938	6.21848e-05	0.00560089	0.00210346	0.00598285	20.584
1287.12	160.096	82.3719	180.044	-27.2266	10.4482	-0.00807526	0.000887757	1.50115	0.314214	1	11	0.0103899	5.77079e-05	0.00493882	0.00254111	0.00555421	27.2266
863.066	165.837	118.538	203.846	-35.5566	10.9152	-0.0080672	0.000747372	1.55568	0.526053	1	11	0.0103849	5.0945e-05	0.00399096	0.00285268	0.00490567	35.5566
583.692	173.056	167.179	240.618	-44.0104	11.3822	-0.00807453	0.00102367	1.631	0.787336	1	11	0.0103705	4.30995e-05	0.00298902	0.00288751	0.00415596	44.0104
394.117	186.394	238.479	302.679	-51.989	12.1012	-0.00809754	5.21814e-05	1.69334	1.05119	1	12	0.0105306	3.47912e-05	0.00203454	0.00260306	0.00330383	51.989
266.449	200.37	340.214	394.834	-59.5039	12.5646	-0.00810329	0.000161974	1.75571	1.30355	1	12	0.010449	2.64642e-05	0.0012853	0.00218234	0.00253271	59.5039
180.058	224.129	481.198	530.835	-65.0252	13.0297	-0.00810234	0.000141589	1.8369	1.50943	1	12	0.0103891	1.95713e-05	0.000795388	0.00170768	0.00188383	65.0252
121.595	253.326	683.336	728.782	-69.6593	13.4901	-0.00808926	-2.84619e-05	1.91544	1.684	1	12	0.0103567	1.42109e-05	0.000476963	0.00128659	0.00137215	69.6593
82.2368	296.468	975.397	1019.46	-73.0936	13.9453	-0.008094	0.000137598	1.98414	1.81634	1	12	0.0103465	1.0149e-05	0.000285259	0.00093852	0.000980914	73.0936
55.5152	370.794	1405.89	1453.97	-75.2251	14.4079	-0.00809253	0.000152928	2.03918	1.90656	1	12	0.010347	7.11637e-06	0.000175397	0.000665031	0.000687772	75.2251
37.5601	460.535	2002.61	2054.88	-77.049	15.1648	-0.0080923	-1.70048e-06	2.11591	2.00963	1	13	0.0103674	5.04524e-06	0.000109066	0.000474266	0.000486646	77.049
25.3653	591.102	2861.89	2922.3	-78.3301	15.6239	-0.00809965	2.72007e-05	2.19244	2.10274	1	13	0.0103487	3.54129e-06	6.92169e-05	0.000335123	0.000342196	78.3301
17.1327	825.186	4048.5	4131.74	-78.4795	16.0378	-0.00810528	1.49129e-05	2.29457	2.20305	1	13	0.0103427	2.50324e-06	4.83378e-05	0.000237153	0.000242029	78.4795
11.5912	1104.39	5736.88	5842.22	-79.1034	16.4473	-0.00810282	9.82916e-06	2.39339	2.30787	1	13	0.0103365	1.76928e-06	3.2357e-05	0.000168082	0.000171168	79.1034
7.82815	1647.39	8226.22	8389.55	-78.6757	17.0283	-0.00809919	1.39328e-06	2.4715	2.3762	1	13	0.0103399	1.23247e-06	2.34056e-05	0.000116875	0.000119196	78.6757
5.29302	2421.37	11588.8	11839	-78.1984	18.2917	-0.00809698	2.2554e-06	2.59465	2.48611	1	14	0.0103387	8.73273e-07	1.72754e-05	8.26808e-05	8.44662e-05	78.1984
3.57551	3567.88	16307.2	16693	-77.6587	19.5064	-0.00809066	2.82358e-06	2.72961	2.60492	1	14	0.0103389	6.19356e-07	1.28039e-05	5.85211e-05	5.99054e-05	77.6587
2.41723	5355.35	22874.6	23493.1	-76.8233	21.2826	-0.00808537	1.6359e-06	2.87838	2.72881	1	14	0.0103426	4.40241e-07	9.70303e-06	4.1445e-05	4.25657e-05	76.8233
1.63271	7953.26	31812.6	32791.7	-75.9636	23.8934	-0.00808694	2.0281e-06	3.06417	2.88392	1	14	0.0103381	3.15267e-07	7.39632e-06	2.95849e-05	3.04955e-05	75.9636
1.10206	11967.6	44201.6	45793	-74.8503	27.7424	-0.00808563	2.32796e-06	3.26721	3.04406	1	14	0.0103382	2.2576e-07	5.70703e-06	2.10785e-05	2.18374e-05	74.8503
0.745609	17766.8	60774.3	63318.1	-73.7042	33.4142	-0.00808512	2.41587e-06	3.51227	3.23574	1	14	0.0103394	1.63294e-07	4.43153e-06	1.51588e-05	1.57933e-05	73.7042
0.503902	26598.8	83395.5	87534.6	-72.31	41.79	-0.00808513	1.65678e-06	3.78731	3.43761	1	14	0.010336	1.18079e-07	3.47138e-06	1.08839e-05	1.1424e-05	72.31
0.340103	39034.2	112679	119249	-70.8929	54.1834	-0.00808236	1.81428e-06	4.15305	3.70806	1	14	0.0103365	8.66801e-08	2.74498e-06	7.92385e-06	8.38584e-06	70.8929
0.230213	55635.9	151353	161255	-69.8171	72.4767	-0.00808332	1.75795e-06	4.56772	4.02399	1	14	0.0103368	6.41022e-08	2.13959e-06	5.82058e-06	6.20137e-06	69.8171
0.155473	78003.7	203300	217751	-69.0088	99.548	-0.008084	1.97738e-06	5.03534	4.38918	1	14	0.0103392	4.74819e-08	1.64511e-06	4.28763e-06	4.5924e-06	69.0088
0.105049	110833	272498	294176	-67.8669	139.597	-0.00808502	1.6879e-06	5.55987	4.77066	1	14	0.0103388	3.51448e-08	1.28073e-06	3.14884e-06	3.39933e-06	67.8669
0.0710227	153328	363391	394414	-67.1233	198.818	-0.00808457	1.61686e-06	6.16664	5.2347	1	14	0.0103367	2.62077e-08	9.85637e-07	2.33598e-06	2.53541e-06	67.1233
0.0479883	219643	485296	532687	-65.6487	286.449	-0.00808576	9.63661e-07	6.83405	5.67215	1	14	0.0103369	1.94052e-08	7.74058e-07	1.71026e-06	1.87728e-06	65.6487
0.0324439	311248	646262	717308	-64.2839	416.049	-0.0080844	1.03577e-06	7.59063	6.16147	1	14	0.0103367	1.44104e-08	6.04917e-07	1.25602e-06	1.3941e-06	64.2839
0.0219206	449508	852469	963722	-62.1973	607.85	-0.00809245	1.79565e-06	8.51705	6.66412	1	14	0.0103374	1.07265e-08	4.83987e-07	9.17857e-07	1.03764e-06	62.1973
0.0148076	670332	1.02013e+06	1.22066e+06	-56.6908	891.768	-0.00808796	7.09113e-06	10.5361	7.35871	1	14	0.0103368	8.46823e-09	4.49887e-07	6.84647e-07	8.19231e-07	56.6908
0.0100006	881252	1.14974e+06	1.44862e+06	-52.5305	1312.14	-0.00809023	5.92401e-06	13.8418	8.71931	1	14	0.0103368	7.13558e-09	4.19943e-07	5.47885e-07	6.90312e-07	52.5305