Folder: PhD_Markup_Experiment/Python Codes/EIS_Processing/0720_05_Plotting (part 3)

File: 0920_02_0.5MTFSI_ZnEMD_InsideGB_0hr_RT_BCD_Messing_Around_01_PEIS_C05.mpt
EC-Lab ASCII FILE
Nb header lines : 62

Potentio Electrochemical Impedance Spectroscopy

Run on channel : 5 (SN 35518)
User :
CE vs. WE compliance from -10 V to 10 V
Electrode connection : standard
Ewe ctrl range : min = -5.00 V, max = 5.00 V
Safety Limits :
	Do not start on E overload
Acquisition started on : 09/28/2023 19:04:55
Technique started on : 09/28/2023 19:04:56
Saved on :
	File : 0920_02_0.5MTFSI_ZnEMD_InsideGB_0hr_RT_BCD_Messing_Around_01_PEIS_C05.mpr
	Directory : C:\Users\CESL\Documents\EC-Lab\Data\PhD\Leifer\Results\Zn Ion GPE\2023\0920\
	Host : 10.110.196.171
Device : VSP (SN 1724172417241724)
Address : USB
EC-Lab for windows v11.16 (software)
Internet server v11.16 (firmware)
Command interpretor v11.16 (firmware)
Electrode material : Au/Pd
Initial state :
Electrolyte : NaCl (0.2M)
Comments : Fe(CN)63-/Fe(CN)64- 5.10-3 M
Reference electrode : SCE Saturated Calomel Electrode (0.241 V)
Electrode surface area : 0.001 cm²
Characteristic mass : 0.001 g
Equivalent Weight : 0.000 g/eq.
Density : 0.000 g/cm3
Cycle Definition : Charge/Discharge alternance
Mode                Single sine
E (V)               0.0000
vs.                 Eoc
tE (h:m:s)          0:00:0.0000
record              0
dI                  0.000
unit dI             mA
dt (s)              0.000
fi                  1.000
unit fi             MHz
ff                  10.000
unit ff             mHz
Nd                  6
Points              per decade
spacing             Logarithmic
Va (mV)             10.0
pw                  0.10
Na                  2
corr                1
E range min (V)     -5.000
E range max (V)     5.000
I Range             Auto
Bandwidth           5
nc cycles           0
goto Ns'            0
nr cycles           0
inc. cycle          0

freq/Hz	Re(Z)/Ohm	-Im(Z)/Ohm	|Z|/Ohm	Phase(Z)/deg	time/s	<Ewe>/V	<I>/mA	Cs/µF	Cp/µF	cycle number	I Range	|Ewe|/V	|I|/A	Re(Y)/Ohm-1	Im(Y)/Ohm-1	|Y|/Ohm-1	Phase(Y)/deg
1.00002e+06	0.400956	3.13699	3.16251	-82.7162	1.97409	1.18145	0.0888666	0.050734	0.0499185	1	9	0.000154317	4.87959e-05	0.0400897	0.313653	0.316205	82.7162
675752	-383.489	127.614	404.165	-161.594	2.97109	1.18122	-0.000549656	0.00184559	0.000183998	1	11	0.000834973	2.06592e-06	-0.00234766	0.000781231	0.00247424	161.594
456640	25.895	-4.53701	26.2894	9.93782	4.2621	1.18135	0.00479511	-0.0768203	-0.00228799	1	10	0.00561833	0.00021371	0.0374674	-0.00656459	0.0380381	-9.93782
308574	17.605	-1.56677	17.6746	5.08566	4.67109	1.18122	0.005588	-0.329197	-0.00258682	1	10	0.0104096	0.000588957	0.0563556	-0.00501539	0.0565783	-5.08566
208525	15.3937	-0.380415	15.3984	1.41562	5.21209	1.18128	0.00664207	-2.00634	-0.00122452	1	10	0.0101826	0.000661275	0.0649219	-0.00160437	0.0649417	-1.41562
140908	14.6774	0.447261	14.6842	-1.74542	5.7531	1.1813	0.00643871	2.52536	0.00234285	1	10	0.0101171	0.000688977	0.0680689	0.00207425	0.0681005	1.74542
95214.8	14.471	1.21839	14.5222	-4.81267	6.1621	1.18131	0.00722974	1.37192	0.00965684	1	10	0.0108755	0.000748886	0.0686172	0.00577723	0.06886	4.81267
64345.7	14.544	2.03179	14.6853	-7.9527	6.5711	1.18131	0.00742935	1.21737	0.0233032	1	10	0.0106436	0.000724779	0.0674405	0.00942137	0.0680954	7.9527
43476.5	14.7848	2.99849	15.0858	-11.4646	6.97909	1.18132	0.00736219	1.22085	0.0482312	1	10	0.0104518	0.000692821	0.0649647	0.0131754	0.0662873	11.4646
29384.8	15.1984	4.202	15.7686	-15.4548	7.38808	1.18133	0.00748906	1.28897	0.0915309	1	10	0.010193	0.000646408	0.061124	0.0168993	0.0634172	15.4548
19853.5	15.7818	5.77169	16.8041	-20.0883	7.7971	1.18132	0.00689579	1.38893	0.163853	1	10	0.0102387	0.0006093	0.0558889	0.0204396	0.0595092	20.0883
13418	16.5786	7.83653	18.3374	-25.2996	8.07409	1.18132	0.00649468	1.51359	0.276428	1	10	0.0106763	0.000582212	0.0493028	0.0233049	0.0545333	25.2996
9082.03	17.6979	10.608	20.6336	-30.9382	8.37133	1.18132	0.00732302	1.65198	0.436639	1	10	0.0107739	0.000522156	0.0415693	0.0249164	0.0484647	30.9382
6140.96	19.1562	14.2556	23.8785	-36.6558	8.77464	1.18134	0.00614581	1.81802	0.647971	1	10	0.0107249	0.000449144	0.0335966	0.0250018	0.0418786	36.6558
4141.32	21.1559	19.3725	28.6856	-42.4805	9.2407	1.18137	0.00766441	1.98378	0.90477	1	10	0.0106434	0.000371037	0.02571	0.0235428	0.0348606	42.4805
2797.31	23.992	26.097	35.4496	-47.4065	9.70695	1.18136	0.00674094	2.18016	1.18154	1	10	0.0105752	0.000298318	0.0190917	0.0207668	0.0282091	47.4065
1890.6	27.8416	35.199	44.879	-51.6568	10.6467	1.18134	0.000713664	2.3916	1.47117	1	11	0.0100259	0.000223398	0.0138232	0.0174761	0.0222821	51.6568
1287.12	33.1423	47.023	57.5289	-54.8234	11.1132	1.18134	0.000682523	2.62961	1.75687	1	11	0.00978233	0.000170042	0.0100141	0.0142082	0.0173826	54.8234
863.066	40.6383	63.0389	75.0025	-57.192	11.5802	1.18134	0.00072429	2.92528	2.06649	1	11	0.00962923	0.000128386	0.00722411	0.0112062	0.0133329	57.192
583.692	50.5833	83.7107	97.8067	-58.857	12.0472	1.18134	0.000766058	3.25728	2.38605	1	11	0.00955147	9.76566e-05	0.00528773	0.00875072	0.0102242	58.857
394.117	63.9878	111.039	128.157	-60.0468	12.5142	1.18134	0.000616697	3.63679	2.73016	1	11	0.00951366	7.42346e-05	0.00389595	0.00676073	0.00780294	60.0468
266.449	82.3782	147.225	168.705	-60.7713	12.9776	1.18134	0.000693707	4.05717	3.0898	1	11	0.00948749	5.62371e-05	0.00289438	0.0051728	0.0059275	60.7713
180.058	107.751	195.081	222.861	-61.0865	13.4427	1.18134	0.000673009	4.53099	3.47182	1	11	0.00947713	4.25249e-05	0.00216946	0.00392779	0.0044871	61.0865
121.595	144.664	256.214	294.233	-60.5499	14.1521	1.18135	-4.28012e-05	5.10859	3.87367	1	12	0.00952236	3.23633e-05	0.00167101	0.00295951	0.00339867	60.5499
82.2368	193.931	331.441	384.009	-59.6674	14.6073	1.18134	-5.10256e-05	5.83912	4.34989	1	12	0.00949483	2.47256e-05	0.00131512	0.00224763	0.00260411	59.6674
55.5152	256.523	424.635	496.103	-58.8637	15.0689	1.18135	5.9473e-06	6.75139	4.94629	1	12	0.00948074	1.91104e-05	0.00104227	0.00172532	0.00201571	58.8637
37.5601	333.835	540.572	635.345	-58.3022	15.5598	1.18135	-1.53129e-05	7.83863	5.6745	1	12	0.00947621	1.49151e-05	0.000827013	0.00133916	0.00157395	58.3022
25.3653	427.204	687.685	809.576	-58.1506	16.0189	1.18135	4.7031e-05	9.12413	6.58347	1	12	0.0094713	1.16991e-05	0.000651808	0.00104924	0.00123521	58.1506
17.1327	553.991	878.461	1038.56	-57.7629	16.4328	1.18134	1.00498e-05	10.5748	7.56584	1	12	0.00946684	9.11538e-06	0.00051362	0.000814446	0.000962875	57.7629
11.5912	686.232	1132.45	1324.15	-58.7854	17.0683	1.18134	-1.73826e-05	12.1247	8.86826	1	13	0.00947697	7.15705e-06	0.000391381	0.000645875	0.000755204	58.7854
7.82815	854.557	1470.02	1700.36	-59.8295	17.6503	1.18134	8.7965e-06	13.8305	10.3372	1	13	0.00947348	5.57146e-06	0.00029557	0.000508442	0.000588112	59.8295
5.29302	1053.62	1929.14	2198.11	-61.3584	18.4867	1.18135	2.2044e-06	15.5867	12.0055	1	13	0.0094704	4.30843e-06	0.000218064	0.000399269	0.000454937	61.3584
3.57551	1282.33	2548.64	2853.06	-63.291	19.7023	1.18135	5.72113e-06	17.4652	13.937	1	13	0.00947134	3.31972e-06	0.000157536	0.000313103	0.000350501	63.291
2.41723	1566.54	3422.46	3763.94	-65.4053	21.4795	1.18135	3.54618e-06	19.2382	15.9057	1	13	0.00946967	2.51589e-06	0.000110575	0.000241575	0.000265679	65.4053
1.63271	1918.27	4652.43	5032.38	-67.5929	25.3634	1.18135	8.78079e-09	20.9523	17.9079	1	14	0.00947341	1.88249e-06	7.57465e-05	0.00018371	0.000198713	67.5929
1.10206	2374.27	6382.45	6809.76	-69.5948	29.2124	1.18135	4.3428e-07	22.627	19.8764	1	14	0.00947159	1.39088e-06	5.11996e-05	0.000137633	0.000146848	69.5948
0.745609	2911.27	8781.23	9251.24	-71.6579	34.8842	1.18135	3.88436e-08	24.3082	21.901	1	14	0.00946852	1.02349e-06	3.40159e-05	0.000102602	0.000108094	71.6579
0.503902	3604.9	12226.6	12747	-73.5724	43.26	1.18135	3.57253e-07	25.8326	23.7665	1	14	0.00946929	7.42866e-07	2.2186e-05	7.52475e-05	7.845e-05	73.5724
0.340103	4478.62	17226.3	17799	-75.4265	55.6535	1.18135	6.20275e-07	27.1655	25.4456	1	14	0.0094673	5.31902e-07	1.41369e-05	5.43754e-05	5.6183e-05	75.4265
0.230213	5752.51	24336.5	25007.1	-76.7009	73.9469	1.18136	8.40379e-09	28.4075	26.9043	1	14	0.00946833	3.78626e-07	9.19879e-06	3.89162e-05	3.99886e-05	76.7009
0.155473	7680.93	34631.6	35473.1	-77.4948	101.018	1.18136	6.7606e-08	29.5593	28.1734	1	14	0.00946859	2.66923e-07	6.10401e-06	2.75216e-05	2.81904e-05	77.4948
0.105049	10653.6	49227.9	50367.5	-77.7887	141.068	1.18136	3.81114e-08	30.7763	29.3994	1	14	0.00946827	1.87984e-07	4.19948e-06	1.94049e-05	1.98541e-05	77.7887
0.0710227	15453.4	69968.9	71655.1	-77.5455	200.289	1.18136	-2.97335e-07	32.0271	30.5375	1	14	0.00946759	1.32127e-07	3.00975e-06	1.36273e-05	1.39557e-05	77.5455
0.0479883	23397.2	99128.7	101852	-76.7196	287.92	1.18136	-4.92138e-07	33.4569	31.6914	1	14	0.0094682	9.296e-08	2.25539e-06	9.55557e-06	9.81813e-06	76.7196
0.0324439	36783.8	139394	144166	-75.2176	417.52	1.18137	-4.77683e-07	35.1918	32.9008	1	14	0.0094683	6.56764e-08	1.76983e-06	6.70686e-06	6.93644e-06	75.2176
0.0219206	59691.8	194909	203845	-72.9725	609.322	1.18137	-1.51013e-06	37.2508	34.0566	1	14	0.00946701	4.64423e-08	1.43653e-06	4.69065e-06	4.90569e-06	72.9725
0.0148076	97898.1	268431	285726	-69.9629	893.241	1.18136	-8.72135e-08	40.0407	35.3401	1	14	0.00946862	3.31388e-08	1.19915e-06	3.28801e-06	3.49985e-06	69.9629
0.0100006	163377	362750	397843	-65.754	1313.62	1.18136	-1.54693e-08	43.8718	36.4733	1	14	0.0094673	2.37966e-08	1.0322e-06	2.29183e-06	2.51355e-06	65.754

File: 0928_01_0.5MTFSI_ZnEMD_InsideGB_0hr_RT_EIS-Remade_from_091923-01_BCD_C01.mpt
EC-Lab ASCII FILE
Nb header lines : 70

Battery Capacity Determination

Run on channel : 1 (SN 35512)
User :
CE vs. WE compliance from -10 V to 10 V
Electrode connection : standard
Ewe ctrl range : min = -5.00 V, max = 5.00 V
Safety Limits :
	Do not start on E overload
Acquisition started on : 09/29/2023 08:44:31
Technique started on : 09/29/2023 08:44:31
Saved on :
	File : 0928_01_0.5MTFSI_ZnEMD_InsideGB_0hr_RT_EIS-Remade_from_091923-01_BCD_C01.mpr
	Directory : C:\Users\CESL\Documents\EC-Lab\Data\PhD\Leifer\Results\Zn Ion GPE\2023\0928\
	Host : 10.110.196.171
Device : VSP (SN 1724172417241724)
Address : USB
EC-Lab for windows v11.16 (software)
Internet server v11.16 (firmware)
Command interpretor v11.16 (firmware)
Electrode material : Au/Pd
Initial state :
Electrolyte : NaCl (0.2M)
Comments : Fe(CN)63-/Fe(CN)64- 5.10-3 M
Reference electrode : SCE Saturated Calomel Electrode (0.241 V)
Electrode surface area : 0.001 cm²
Characteristic mass : 0.001 g
Equivalent Weight : 0.000 g/eq.
Density : 0.000 g/cm3
Cycle Definition : Charge/Discharge alternance
Set I/C             I
Is1                 100.000
unit Is1            µA
N1                  1.00
I1 sign             > 0
t1 (h:m:s)          11:00:0.0000
EM1 (V)             1.900
EM1 vs.             Ref
EM2 (V)             0.800
EM2 vs.             Ref
dE1 (mV)            0.00
dt1 (s)             10.0000
Hold EM1            1
tM1 (h:m:s)         1:00:0.0000
Set I limit         0
Im                  90.000
unit Im             µA
Nl                  20.00
I Range             1 mA
Bandwidth           5
E range min (V)     -5.000
E range max (V)     5.000
tR (h:m:s)          0:00:0.0000
dER/dt (mV/h)       0.0
dER (mV)            0.00
dtR (s)             0.0000
Charge/Discharge    1
Set I/C             I
Is2                 -100.000
unit Is2            µA
N2                  1.00
I2 sign             > 0
t2 (h:m:s)          11:00:0.0000
Return Ei           0
use C               1

mode	ox/red	error	control changes	time/s	control/V/mA	Ewe/V	I/mA	dq/mA.h	(Q-Qo)/mA.h	Q charge/discharge/mA.h	half cycle	Energy charge/W.h	Energy discharge/W.h	Capacitance charge/µF	Capacitance discharge/µF	Q discharge/mA.h	Q charge/mA.h	Capacity/mA.h	Efficiency/%	control/V	control/mA	cycle number	P/W
1	1	0	1	0.000000000000000E+000	0.1	-1.12945	0.099863	0.000000000000000E+000	0.000000000000000E+000	0.000000000000000E+000	0	0.000000000000000E+000	0.000000000000000E+000	0.000000000000000E+000	0.000000000000000E+000	0.000000000000000E+000	0.000000000000000E+000	0.000000000000000E+000	0	0	0.1	0.000000000000000E+000	-0.000112791
1	1	0	1	400	0.1	-0.322237	0.0998376	0.000277304	0.0110926	0.0110926	0	-5.54187e-06	0.000000000000000E+000	75987.1	0.000000000000000E+000	0.000000000000000E+000	0.0110926	0.0110926	0	0	0.1	0.000000000000000E+000	-3.21714e-05
1	1	0	1	800	0.1	-0.115994	0.0997866	0.000277288	0.0221843	0.0221843	0	-7.9919e-06	0.000000000000000E+000	109137	0.000000000000000E+000	0.000000000000000E+000	0.0221843	0.0221843	0	0	0.1	0.000000000000000E+000	-1.15746e-05
1	1	0	1	1200	0.1	0.164987	0.0998121	0.000277314	0.0332763	0.0332763	0	-7.74568e-06	0.000000000000000E+000	118286	0.000000000000000E+000	0.000000000000000E+000	0.0332763	0.0332763	0	0	0.1	0.000000000000000E+000	1.64677e-05
1	1	0	1	1600	0.1	0.248194	0.0998248	0.000277274	0.0443675	0.0443675	0	-5.05989e-06	0.000000000000000E+000	145738	0.000000000000000E+000	0.000000000000000E+000	0.0443675	0.0443675	0	0	0.1	0.000000000000000E+000	2.47759e-05
1	1	0	1	2000	0.1	0.230742	0.0998312	0.000277266	0.0554584	0.0554584	0	-2.41355e-06	0.000000000000000E+000	185117	0.000000000000000E+000	0.000000000000000E+000	0.0554584	0.0554584	0	0	0.1	0.000000000000000E+000	2.30352e-05
1	1	0	1	2400	0.1	0.219113	0.0997803	0.000277274	0.0665491	0.0665491	0	7.61002e-08	0.000000000000000E+000	224559	0.000000000000000E+000	0.000000000000000E+000	0.0665491	0.0665491	0	0	0.1	0.000000000000000E+000	2.18631e-05
1	1	0	1	2800	0.1	0.209737	0.0998185	0.000277273	0.07764	0.07764	0	2.45262e-06	0.000000000000000E+000	264306	0.000000000000000E+000	0.000000000000000E+000	0.07764	0.07764	0	0	0.1	0.000000000000000E+000	2.09356e-05
1	1	0	1	3200	0.1	0.200744	0.0997866	0.000277276	0.0887308	0.0887308	0	4.7275e-06	0.000000000000000E+000	304652	0.000000000000000E+000	0.000000000000000E+000	0.0887308	0.0887308	0	0	0.1	0.000000000000000E+000	2.00315e-05
1	1	0	1	3600	0.1	0.192533	0.0998821	0.000277277	0.0998215	0.0998215	0	6.90771e-06	0.000000000000000E+000	345437	0.000000000000000E+000	0.000000000000000E+000	0.0998215	0.0998215	0	0	0.1	0.000000000000000E+000	1.92306e-05
1	1	0	1	4000	0.1	0.184838	0.0998439	0.000277262	0.110912	0.110912	0	8.99929e-06	0.000000000000000E+000	386677	0.000000000000000E+000	0.000000000000000E+000	0.110912	0.110912	0	0	0.1	0.000000000000000E+000	1.84549e-05
1	1	0	1	4400	0.1	0.177753	0.0998248	0.000277264	0.122003	0.122003	0	1.10092e-05	0.000000000000000E+000	428280	0.000000000000000E+000	0.000000000000000E+000	0.122003	0.122003	0	0	0.1	0.000000000000000E+000	1.77442e-05
1	1	0	1	4800	0.1	0.171777	0.099793	0.000277268	0.133093	0.133093	0	1.29469e-05	0.000000000000000E+000	469952	0.000000000000000E+000	0.000000000000000E+000	0.133093	0.133093	0	0	0.1	0.000000000000000E+000	1.71421e-05
1	1	0	1	5200	0.1	0.166526	0.0998185	0.000277284	0.144184	0.144184	0	1.48213e-05	0.000000000000000E+000	511750	0.000000000000000E+000	0.000000000000000E+000	0.144184	0.144184	0	0	0.1	0.000000000000000E+000	1.66223e-05
1	1	0	1	5600	0.1	0.162439	0.0998567	0.000277279	0.155275	0.155275	0	1.66441e-05	0.000000000000000E+000	553345	0.000000000000000E+000	0.000000000000000E+000	0.155275	0.155275	0	0	0.1	0.000000000000000E+000	1.62206e-05
1	1	0	1	6000	0.1	0.15862	0.0997675	0.000277282	0.166366	0.166366	0	1.8423e-05	0.000000000000000E+000	595119	0.000000000000000E+000	0.000000000000000E+000	0.166366	0.166366	0	0	0.1	0.000000000000000E+000	1.58252e-05
1	1	0	1	6400	0.1	0.155603	0.0997866	0.000277283	0.177458	0.177458	0	2.01646e-05	0.000000000000000E+000	636703	0.000000000000000E+000	0.000000000000000E+000	0.177458	0.177458	0	0	0.1	0.000000000000000E+000	1.55271e-05
1	1	0	1	6800	0.1	0.152835	0.0997675	0.000277252	0.188549	0.188549	0	2.18738e-05	0.000000000000000E+000	678367	0.000000000000000E+000	0.000000000000000E+000	0.188549	0.188549	0	0	0.1	0.000000000000000E+000	1.52479e-05
1	1	0	1	7200	0.1	0.149856	0.0998376	0.000277267	0.199639	0.199639	0	2.35543e-05	0.000000000000000E+000	720414	0.000000000000000E+000	0.000000000000000E+000	0.199639	0.199639	0	0	0.1	0.000000000000000E+000	1.49612e-05
1	1	0	1	7600	0.1	0.147984	0.0997675	0.000277286	0.21073	0.21073	0	2.52058e-05	0.000000000000000E+000	761866	0.000000000000000E+000	0.000000000000000E+000	0.21073	0.21073	0	0	0.1	0.000000000000000E+000	1.4764e-05
1	1	0	1	8000	0.1	0.14638	0.0998821	0.000277282	0.221821	0.221821	0	2.6839e-05	0.000000000000000E+000	803258	0.000000000000000E+000	0.000000000000000E+000	0.221821	0.221821	0	0	0.1	0.000000000000000E+000	1.46208e-05
1	1	0	1	8400	0.1	0.144929	0.0998185	0.00027732	0.232913	0.232913	0	2.84544e-05	0.000000000000000E+000	844656	0.000000000000000E+000	0.000000000000000E+000	0.232913	0.232913	0	0	0.1	0.000000000000000E+000	1.44666e-05
[...]
1	1	0	1	12000	0.1	0.132766	0.0999331	0.000277306	0.33274	0.33274	0	4.22624e-05	0.000000000000000E+000	1.22165e+06	0.000000000000000E+000	0.000000000000000E+000	0.33274	0.33274	0	0	0.1	0.000000000000000E+000	1.32677e-05
1	1	0	1	12400	0.1	0.131639	0.0998439	0.000277333	0.343833	0.343833	0	4.37289e-05	0.000000000000000E+000	1.26383e+06	0.000000000000000E+000	0.000000000000000E+000	0.343833	0.343833	0	0	0.1	0.000000000000000E+000	1.31434e-05
1	1	0	1	12800	0.1	0.130646	0.0998885	0.000277334	0.354927	0.354927	0	4.51841e-05	0.000000000000000E+000	1.30593e+06	0.000000000000000E+000	0.000000000000000E+000	0.354927	0.354927	0	0	0.1	0.000000000000000E+000	1.30501e-05
1	1	0	1	13200	0.1	0.129596	0.0997675	0.000277321	0.36602	0.36602	0	4.66274e-05	0.000000000000000E+000	1.34819e+06	0.000000000000000E+000	0.000000000000000E+000	0.36602	0.36602	0	0	0.1	0.000000000000000E+000	1.29295e-05
1	1	0	1	13600	0.1	0.128584	0.0997866	0.000277313	0.377113	0.377113	0	4.80596e-05	0.000000000000000E+000	1.39049e+06	0.000000000000000E+000	0.000000000000000E+000	0.377113	0.377113	0	0	0.1	0.000000000000000E+000	1.2831e-05
1	1	0	1	14000	0.1	0.127553	0.0998885	0.000277316	0.388205	0.388205	0	4.94809e-05	0.000000000000000E+000	1.4329e+06	0.000000000000000E+000	0.000000000000000E+000	0.388205	0.388205	0	0	0.1	0.000000000000000E+000	1.27411e-05
1	1	0	1	14400	0.1	0.126713	0.0998121	0.000277309	0.399298	0.399298	0	5.08914e-05	0.000000000000000E+000	1.47512e+06	0.000000000000000E+000	0.000000000000000E+000	0.399298	0.399298	0	0	0.1	0.000000000000000E+000	1.26475e-05
1	1	0	1	14800	0.1	0.125815	0.0998503	0.000277308	0.41039	0.41039	0	5.22919e-05	0.000000000000000E+000	1.51749e+06	0.000000000000000E+000	0.000000000000000E+000	0.41039	0.41039	0	0	0.1	0.000000000000000E+000	1.25627e-05
1	1	0	1	15200	0.1	0.124994	0.0998121	0.000277286	0.421482	0.421482	0	5.36826e-05	0.000000000000000E+000	1.55982e+06	0.000000000000000E+000	0.000000000000000E+000	0.421482	0.421482	0	0	0.1	0.000000000000000E+000	1.24759e-05
1	1	0	1	15600	0.1	0.124173	0.0998439	0.000277299	0.432574	0.432574	0	5.50637e-05	0.000000000000000E+000	1.60223e+06	0.000000000000000E+000	0.000000000000000E+000	0.432574	0.432574	0	0	0.1	0.000000000000000E+000	1.23979e-05
1	1	0	1	16000	0.1	0.123352	0.0998312	0.00027729	0.443666	0.443666	0	5.6436e-05	0.000000000000000E+000	1.6447e+06	0.000000000000000E+000	0.000000000000000E+000	0.443666	0.443666	0	0	0.1	0.000000000000000E+000	1.23144e-05
1	1	0	1	16400	0.1	0.122512	0.0998057	0.000277296	0.454757	0.454757	0	5.77998e-05	0.000000000000000E+000	1.68728e+06	0.000000000000000E+000	0.000000000000000E+000	0.454757	0.454757	0	0	0.1	0.000000000000000E+000	1.22274e-05
1	1	0	1	16800	0.1	0.121977	0.0998248	0.000277286	0.465849	0.465849	0	5.91556e-05	0.000000000000000E+000	1.72938e+06	0.000000000000000E+000	0.000000000000000E+000	0.465849	0.465849	0	0	0.1	0.000000000000000E+000	1.21764e-05
1	1	0	1	17200	0.1	0.12108	0.0997994	0.000277299	0.476941	0.476941	0	6.05034e-05	0.000000000000000E+000	1.7722e+06	0.000000000000000E+000	0.000000000000000E+000	0.476941	0.476941	0	0	0.1	0.000000000000000E+000	1.20837e-05
1	1	0	1	17600	0.1	0.120622	0.0998821	0.000277308	0.488033	0.488033	0	6.18438e-05	0.000000000000000E+000	1.81427e+06	0.000000000000000E+000	0.000000000000000E+000	0.488033	0.488033	0	0	0.1	0.000000000000000E+000	1.20479e-05
1	1	0	1	17840	0.1	0.120259	0.0998248	0.000277304	0.494688	0.494688	0	6.26447e-05	0.000000000000000E+000	1.8397e+06	0.000000000000000E+000	0.000000000000000E+000	0.494688	0.494688	0	0	0.1	0.000000000000000E+000	1.20048e-05