Folder: PhD_Markup_Experiment/Python_Codes/EIS_Processing/0720_05_Plotting (part 2)

File: 0928_01_0.5MTFSI_ZnEMD_InsideGB_0hr_RT_EIS-Remade_from_091923-01_C01.mpt
EC-Lab ASCII FILE
Nb header lines : 62

Potentio Electrochemical Impedance Spectroscopy

Run on channel : 1 (SN 35512)
User :
CE vs. WE compliance from -10 V to 10 V
Electrode connection : standard
Ewe ctrl range : min = -5.00 V, max = 5.00 V
Safety Limits :
	Do not start on E overload
Acquisition started on : 09/28/2023 18:49:01
Technique started on : 09/28/2023 18:49:03
Saved on :
	File : 0928_01_0.5MTFSI_ZnEMD_InsideGB_0hr_RT_EIS-Remade_from_091923-01_C01.mpr
	Directory : C:\Users\CESL\Documents\EC-Lab\Data\PhD\Leifer\Results\Zn Ion GPE\2023\0928\
	Host : 10.110.196.171
Device : VSP (SN 1724172417241724)
Address : USB
EC-Lab for windows v11.16 (software)
Internet server v11.16 (firmware)
Command interpretor v11.16 (firmware)
Electrode material : Au/Pd
Initial state :
Electrolyte : NaCl (0.2M)
Comments : Fe(CN)63-/Fe(CN)64- 5.10-3 M
Reference electrode : SCE Saturated Calomel Electrode (0.241 V)
Electrode surface area : 0.001 cm²
Characteristic mass : 0.001 g
Equivalent Weight : 0.000 g/eq.
Density : 0.000 g/cm3
Cycle Definition : Charge/Discharge alternance
Mode                Single sine
E (V)               0.0000
vs.                 Eoc
tE (h:m:s)          0:00:0.0000
record              0
dI                  0.000
unit dI             mA
dt (s)              0.000
fi                  1.000
unit fi             MHz
ff                  10.000
unit ff             mHz
Nd                  6
Points              per decade
spacing             Logarithmic
Va (mV)             10.0
pw                  0.10
Na                  2
corr                1
E range min (V)     -5.000
E range max (V)     5.000
I Range             Auto
Bandwidth           5
nc cycles           0
goto Ns'            0
nr cycles           0
inc. cycle          0

freq/Hz	Re(Z)/Ohm	-Im(Z)/Ohm	|Z|/Ohm	Phase(Z)/deg	time/s	<Ewe>/V	<I>/mA	Cs/µF	Cp/µF	cycle number	I Range	|Ewe|/V	|I|/A	Re(Y)/Ohm-1	Im(Y)/Ohm-1	|Y|/Ohm-1	Phase(Y)/deg
1.00002e+06	-65.2831	13.3954	66.6432	-168.404	2.4871	-0.565482	-0.00120776	0.0118811	0.000480017	1	11	0.000322657	4.84156e-06	-0.014699	0.00301609	0.0150053	168.404
675752	51.0606	-12.0905	52.4726	13.3215	2.89609	-0.566038	0.000223308	-0.01948	-0.00103422	1	11	0.00160971	3.06772e-05	0.0185448	-0.00439116	0.0190576	-13.3215
456640	28.0562	-3.93382	28.3307	7.98152	3.59908	-0.565914	0.0110108	-0.0885996	-0.00170823	1	10	0.00888333	0.000313559	0.0349555	-0.00490118	0.0352975	-7.98152
308574	23.1166	-1.956	23.1992	4.83652	4.1401	-0.566144	0.0104812	-0.263689	-0.00187448	1	10	0.0100664	0.00043391	0.0429514	-0.0036343	0.0431049	-4.83652
208525	21.4952	-1.04735	21.5207	2.78952	4.6811	-0.56614	0.0112029	-0.728735	-0.00172599	1	10	0.0101178	0.000470144	0.0464118	-0.0022614	0.0464668	-2.78952
140908	20.8473	-0.419116	20.8515	1.15173	5.2221	-0.566149	0.0108355	-2.69494	-0.00108879	1	10	0.010116	0.000485147	0.0479486	-0.000963964	0.0479582	-1.15173
95214.8	20.5863	0.021126	20.5864	-0.0587977	5.63109	-0.566136	0.0118145	79.1223	8.33247e-05	1	10	0.0107383	0.000521624	0.0485758	4.98492e-05	0.0485759	0.0587977
64345.7	20.4751	0.416074	20.4793	-1.16415	6.04008	-0.566145	0.0116952	5.9447	0.00245381	1	10	0.0104892	0.000512185	0.0488197	0.000992066	0.0488298	1.16415
43476.5	20.4778	0.804309	20.4936	-2.24926	6.44908	-0.566154	0.0106136	4.55137	0.00701057	1	10	0.0103038	0.000502781	0.0487582	0.00191509	0.0487958	2.24926
29384.8	20.5791	1.27522	20.6186	-3.5459	6.85808	-0.56616	0.0113633	4.24729	0.0162467	1	10	0.0102433	0.000496798	0.0484071	0.00299963	0.0484999	3.5459
19853.5	20.7686	1.8867	20.8541	-5.19075	7.2671	-0.566154	0.0108505	4.24892	0.034778	1	10	0.0100669	0.000482732	0.0477556	0.00433832	0.0479523	5.19075
13418	21.0384	2.63934	21.2033	-7.15057	7.54409	-0.566145	0.0102668	4.49406	0.0696337	1	10	0.0105426	0.000497213	0.0467956	0.00587065	0.0471624	7.15057
9082.03	21.4215	3.6012	21.7221	-9.54286	7.84133	-0.566156	0.010168	4.8662	0.133746	1	10	0.0107717	0.000495888	0.0453991	0.00763211	0.0460361	9.54286
6140.96	21.9449	4.94238	22.4946	-12.6922	8.24463	-0.566167	0.00801234	5.24382	0.253142	1	10	0.0108793	0.00048364	0.0433689	0.00976743	0.0444552	12.6922
4141.32	22.7261	6.70107	23.6934	-16.4288	8.71067	-0.56613	0.00880671	5.73505	0.458742	1	10	0.0109094	0.000460441	0.0404826	0.0119368	0.0422058	16.4288
2797.31	23.8414	9.01536	25.489	-20.7135	9.17696	-0.56614	0.00927103	6.31096	0.789507	1	10	0.0109101	0.000428033	0.0366966	0.0138764	0.0392326	20.7135
1890.6	25.4333	11.9577	28.104	-25.181	9.64166	-0.566136	0.00943885	7.03999	1.27447	1	10	0.0108869	0.00038738	0.0322006	0.0151394	0.0355821	25.181
1287.12	27.5729	15.5259	31.6437	-29.3832	10.1082	-0.56614	0.00914982	7.96425	1.91728	1	10	0.0108648	0.000343349	0.0275365	0.0155054	0.0316019	29.3832
863.066	30.476	20.2769	36.6052	-33.6373	11.0492	-0.56616	0.001305	9.09443	2.79056	1	11	0.0101744	0.000277948	0.0227443	0.0151327	0.0273185	33.6373
583.692	33.7699	26.0166	42.6294	-37.611	11.5162	-0.56615	0.00153375	10.4806	3.90362	1	11	0.0100941	0.000236786	0.0185828	0.0143163	0.023458	37.611
394.117	37.5413	33.688	50.4404	-41.9035	11.9832	-0.566153	0.00133688	11.9872	5.34705	1	11	0.0100369	0.000198986	0.0147555	0.0132409	0.0198254	41.9035
266.449	41.9776	44.3911	61.0957	-46.6007	12.4467	-0.566152	0.00159751	13.4558	7.10361	1	11	0.010007	0.000163792	0.0112459	0.0118925	0.0163678	46.6007
180.058	47.4353	59.2151	75.8718	-51.3029	12.9117	-0.566153	0.00176157	14.9271	9.09243	1	11	0.00998226	0.000131567	0.00824025	0.0102866	0.0131801	51.3029
121.595	54.4792	80.2268	96.9759	-55.8209	13.3721	-0.566153	0.00158595	16.3149	11.1659	1	11	0.00996296	0.000102736	0.005793	0.00853084	0.0103118	55.8209
82.2368	64.411	109.41	126.962	-59.5141	13.8273	-0.566165	0.00170229	17.6888	13.136	1	11	0.00995498	7.84093e-05	0.0039959	0.00678751	0.00787639	59.5141
55.5152	80.1227	150.524	170.52	-61.974	14.2889	-0.566162	0.00173752	19.0459	14.841	1	11	0.00995053	5.83539e-05	0.00275552	0.00517671	0.00586441	61.974
37.5601	104.456	206.902	231.774	-63.2128	15.0457	-0.566164	0.000486205	20.48	16.3203	1	12	0.00997257	4.30271e-05	0.00194447	0.00385154	0.00431454	63.2128
25.3653	143.322	282.15	316.465	-63.0712	15.5049	-0.566167	0.000440307	22.2382	17.6771	1	12	0.00995466	3.14558e-05	0.00143107	0.00281728	0.00315991	63.0712
17.1327	205.174	379.184	431.135	-61.5825	15.9188	-0.566175	0.000695308	24.4988	18.9504	1	12	0.00996121	2.31046e-05	0.00110382	0.00203997	0.00231946	61.5825
11.5912	298.267	481.951	566.781	-58.2477	16.3283	-0.566169	0.000679903	28.4896	20.5998	1	12	0.00995439	1.7563e-05	0.000928485	0.00150028	0.00176435	58.2477
7.82815	446.296	592.196	741.536	-52.9973	16.9103	-0.566162	0.000991684	34.3317	21.8958	1	12	0.00994864	1.34163e-05	0.00081163	0.00107696	0.00134855	52.9973
5.29302	628.485	694.187	936.424	-47.8437	18.1737	-0.566157	0.000820601	43.3152	23.8039	1	13	0.00995601	1.06319e-05	0.000716721	0.000791647	0.00106789	47.8437
3.57551	842.955	770.562	1142.08	-42.4311	19.3893	-0.56615	0.000833895	57.7662	26.2966	1	13	0.00995171	8.7137e-06	0.00064627	0.000590768	0.000875598	42.4311
2.41723	1076.83	817.351	1351.9	-37.1997	21.1665	-0.566148	0.00101871	80.5551	29.4457	1	13	0.00995143	7.36108e-06	0.000589196	0.000447219	0.000739701	37.1997
1.63271	1317.26	851.11	1568.3	-32.8674	23.7774	-0.566151	0.00121998	114.532	33.7319	1	13	0.00994908	6.34387e-06	0.000535567	0.000346042	0.000637634	32.8674
1.10206	1561.11	872.49	1788.38	-29.2004	27.6264	-0.566154	0.00120189	165.522	39.3964	1	13	0.00995135	5.56445e-06	0.000488106	0.000272798	0.000559165	29.2004
0.745609	1827.7	872.242	2025.17	-25.5121	33.2981	-0.56615	0.00158881	244.721	45.3967	1	13	0.00994907	4.91272e-06	0.00044564	0.000212675	0.000493787	25.5121
0.503902	2125.44	870.476	2296.79	-22.2716	41.6739	-0.56615	0.00166099	362.842	52.1181	1	13	0.0099499	4.33209e-06	0.00040291	0.000165012	0.000435391	22.2716
0.340103	2482.15	802.538	2608.66	-17.9173	54.0673	-0.566154	0.00293546	583.102	55.1873	1	13	0.00994882	3.81376e-06	0.000364747	0.000117931	0.000383338	17.9173
0.230213	2863.05	904.915	3002.66	-17.54	72.3606	-0.566149	0.00401492	763.981	69.3885	1	13	0.00994918	3.31346e-06	0.000317554	0.000100368	0.000333038	17.54
0.155473	3238.25	1064.11	3408.6	-18.1909	99.4319	-0.566148	0.00545898	962.007	93.7564	1	13	0.00994702	2.91821e-06	0.000278713	9.15872e-05	0.000293375	18.1909
0.105049	3654.04	744.917	3729.2	-11.5225	139.481	-0.56615	0.0073351	2033.85	81.1531	1	13	0.0099468	2.66728e-06	0.00026275	5.35645e-05	0.000268154	11.5225
0.0710227	3967.41	357.483	3983.48	-5.14872	198.702	-0.566151	0.00966092	6268.56	50.4838	1	13	0.0099471	2.49709e-06	0.000250024	2.25283e-05	0.000251037	5.14872
0.0479883	4639.37	237.341	4645.44	-2.92859	286.333	-0.566151	0.0127861	13973.7	36.4758	1	13	0.00994783	2.14142e-06	0.000214984	1.09982e-05	0.000215265	2.92859
0.0324439	4433.97	667.039	4483.86	-8.55533	415.933	-0.566158	0.0167164	7354.2	162.755	1	13	0.00994706	2.21841e-06	0.00022054	3.31777e-05	0.000223022	8.55533
0.0219206	3822.87	1672.54	4172.74	-23.6297	607.734	-0.566149	0.0201481	4341.03	697.431	1	13	0.00994652	2.38369e-06	0.000219557	9.60579e-05	0.000239651	23.6297
0.0148076	4110.89	740.201	4177	-10.2072	891.652	-0.566151	0.0215889	14520.6	455.991	1	13	0.00994631	2.38121e-06	0.000235617	4.24249e-05	0.000239406	10.2072
0.0100006	4514.9	1321.16	4704.24	-16.3107	1312.02	-0.566172	0.0226738	12045.8	950.104	1	13	0.00994703	2.11448e-06	0.000204019	5.97006e-05	0.000212574	16.3107