Folder: PhD_Markup_Experiment/Python_Codes/EIS_Processing

Note: README.md
# PhD_Markup_Experiment
This is my trial of notekeeping on Github. Let's see how it works out

## Installation

The repository includes the battery analysis package in
`Python_Codes/BLeifer_Battery_Analysis`. To install the required
dependencies, navigate to that folder and run:

```bash
pip install .
```

Additional optional features are available. Install them by passing one
of the extras:

```bash
pip install ".[biologic_mpr]"  # BioLogic .mpr file support
pip install ".[eis]"          # EIS tools
pip install ".[pybamm]"       # PyBAMM modeling
pip install ".[all]"          # everything
```

### Development setup

Install the dependencies needed for running the tests and style checks:

```bash
pip install -r requirements-dev.txt
```

The package requires a running MongoDB instance for data storage.

## License

This project is licensed under the [MIT License](LICENSE).

## Dashboard

A lightweight Dash application provides a simple interface for monitoring battery tests.
To run the dashboard locally, install `dash` and execute:

```bash
pip install dash dash-bootstrap-components
python -m dashboard.app
```

The app currently uses placeholder data but is structured for MongoDB integration
via the functions in `dashboard/data_access.py`.

File: 0720_06_EIS_0.5MTFSI_SymCell_OutsideGB_unsanded_40C_ThinCell_C03.mpt
EC-Lab ASCII FILE
Nb header lines : 62

Potentio Electrochemical Impedance Spectroscopy

Run on channel : 3 (SN 35515)
User :
CE vs. WE compliance from -10 V to 10 V
Electrode connection : standard
Ewe ctrl range : min = -5.00 V, max = 5.00 V
Safety Limits :
	Do not start on E overload
Acquisition started on : 07/20/2023 18:46:26
Technique started on : 07/20/2023 18:46:28
Saved on :
	File : 0720_06_EIS_0.5MTFSI_SymCell_OutsideGB_unsanded_40C_ThinCell_C03.mpr
	Directory : C:\Users\CESL\Documents\EC-Lab\Data\PhD\Leifer\Results\Zn Ion GPE\2023\0720\
	Host : 10.110.196.171
Device : VSP (SN 17241724)
Address : USB
EC-Lab for windows v11.16 (software)
Internet server v11.16 (firmware)
Command interpretor v11.16 (firmware)
Electrode material : Au/Pd
Initial state :
Electrolyte : NaCl (0.2M)
Comments : Fe(CN)63-/Fe(CN)64- 5.10-3 M
Reference electrode : SCE Saturated Calomel Electrode (0.241 V)
Electrode surface area : 0.001 cm²
Characteristic mass : 0.001 g
Equivalent Weight : 0.000 g/eq.
Density : 0.000 g/cm3
Cycle Definition : Charge/Discharge alternance
Mode                Single sine
E (V)               0.0000
vs.                 Eoc
tE (h:m:s)          0:00:0.0000
record              0
dI                  0.000
unit dI             mA
dt (s)              0.000
fi                  1.000
unit fi             MHz
ff                  10.000
unit ff             mHz
Nd                  6
Points              per decade
spacing             Logarithmic
Va (mV)             10.0
pw                  0.10
Na                  2
corr                1
E range min (V)     -5.000
E range max (V)     5.000
I Range             Auto
Bandwidth           5
nc cycles           0
goto Ns'            0
nr cycles           0
inc. cycle          0

freq/Hz	Re(Z)/Ohm	-Im(Z)/Ohm	|Z|/Ohm	Phase(Z)/deg	time/s	<Ewe>/V	<I>/mA	Cs/µF	Cp/µF	cycle number	I Range	|Ewe|/V	|I|/A	Re(Y)/Ohm-1	Im(Y)/Ohm-1	|Y|/Ohm-1	Phase(Y)/deg
1.00002e+06	-460.252	-167.545	489.799	159.997	2.8191	-0.00298356	0.000422311	-0.000949904	-0.00011115	1	12	0.000889857	1.81678e-06	-0.00191849	-0.000698387	0.00204165	-159.997
675752	252.601	-16.7773	253.157	3.7999	3.97809	-0.00373475	0.000228252	-0.0140382	-6.16557e-05	1	11	0.00654798	2.58653e-05	0.00394143	-0.000261782	0.00395011	-3.7999
456640	143.25	-7.01519	143.422	2.80362	4.38709	-0.0038621	0.000225456	-0.0496828	-0.000118865	1	11	0.0106562	7.42995e-05	0.00696408	-0.000341041	0.00697242	-2.80362
308574	118.551	-3.86833	118.614	1.8689	4.92808	-0.00398447	0.000560356	-0.133333	-0.000141811	1	11	0.0101217	8.53333e-05	0.0084262	-0.000274948	0.00843069	-1.8689
208525	109.279	-1.3704	109.288	0.718473	5.33708	-0.00398072	0.000474207	-0.556946	-8.75722e-05	1	11	0.0108392	9.91807e-05	0.00914943	-0.000114737	0.00915015	-0.718473
140908	105.317	0.539513	105.319	-0.293509	5.74608	-0.00398182	0.0003916	2.09354	5.49382e-05	1	11	0.0107255	0.000101839	0.00949486	4.86397e-05	0.00949499	0.293509
95214.8	104.111	2.59334	104.144	-1.4269	6.15509	-0.00396877	0.000415095	0.644549	0.000399677	1	11	0.0106085	0.000101864	0.00959914	0.000239108	0.00960212	1.4269
64345.7	103.67	4.96732	103.788	-2.74323	6.56408	-0.00397462	0.000377242	0.497942	0.00114058	1	11	0.0104901	0.000101072	0.00962394	0.000461131	0.00963498	2.74323
43476.5	104.038	7.43165	104.303	-4.08581	6.9731	-0.0039779	0.000358595	0.492584	0.00250066	1	11	0.0104589	0.000100274	0.00956307	0.000683109	0.00958743	4.08581
29384.8	104.829	10.7294	105.376	-5.84395	7.38208	-0.00395537	0.000424792	0.504805	0.00523341	1	11	0.0103006	9.77506e-05	0.00944047	0.000966245	0.00948979	5.84395
19853.5	106.038	14.8385	107.071	-7.96605	7.79109	-0.00396422	0.000313655	0.540246	0.010376	1	11	0.0101873	9.51458e-05	0.00924949	0.00129434	0.00933961	7.96605
13418	107.777	20.6945	109.746	-10.8692	8.1991	-0.00395444	0.000454627	0.573163	0.0203803	1	11	0.0101721	9.26874e-05	0.00894847	0.00171821	0.00911193	10.8692
9082.03	110.204	28.5194	113.835	-14.5091	8.49633	-0.00396989	0.000281023	0.614464	0.0385681	1	11	0.0106136	9.32369e-05	0.0085045	0.00220085	0.00878466	14.5091
6140.96	113.577	39.1122	120.122	-19.0021	8.89963	-0.00397323	0.000231422	0.66263	0.0702503	1	11	0.010784	8.97748e-05	0.00787119	0.00271059	0.00832484	19.0021
4141.32	118.371	53.9516	130.087	-24.5027	9.36568	-0.0039397	0.000574713	0.712323	0.122524	1	11	0.0108241	8.32068e-05	0.00699489	0.00318815	0.00768719	24.5027
2797.31	125.068	74.1458	145.394	-30.6614	9.83193	-0.00394441	0.000497514	0.767348	0.199559	1	11	0.010808	7.43355e-05	0.0059163	0.00350745	0.00687785	30.6614
1890.6	135.009	101.352	168.819	-36.8958	10.2967	-0.00393988	0.000473646	0.830587	0.299372	1	11	0.0107692	6.37913e-05	0.0047372	0.00355625	0.00592351	36.8958
1287.12	147.921	136.966	201.595	-42.7978	10.7632	-0.00394799	0.000497141	0.902796	0.416732	1	11	0.0107214	5.31829e-05	0.00363976	0.0033702	0.00496045	42.7978
863.066	167.183	186.772	250.667	-48.1677	11.2302	-0.00395339	0.000472526	0.987332	0.548142	1	11	0.0106948	4.26652e-05	0.00266071	0.00297247	0.00398935	48.1677
583.692	191.928	252.579	317.226	-52.7697	11.9492	-0.00398335	9.15908e-05	1.07954	0.684377	1	12	0.0109203	3.44244e-05	0.00190722	0.00250992	0.00315233	52.7697
394.117	225.465	340.718	408.563	-56.506	12.4162	-0.00397552	7.53512e-06	1.18522	0.824276	1	12	0.0107908	2.64116e-05	0.00135071	0.00204116	0.00244761	56.506
266.449	270.069	459.408	532.91	-59.5502	12.8797	-0.00397936	8.13166e-05	1.30019	0.966264	1	12	0.0107227	2.0121e-05	0.000950972	0.00161767	0.00187649	59.5502
180.058	329.139	622.748	704.377	-62.1423	13.3447	-0.00398046	8.03281e-05	1.41937	1.10946	1	12	0.0106919	1.51792e-05	0.00066339	0.00125517	0.00141969	62.1423
121.595	400.766	842.234	932.722	-64.5531	13.8051	-0.00398372	2.43719e-05	1.55407	1.26716	1	12	0.0106734	1.14433e-05	0.000460666	0.000968117	0.00107213	64.5531
82.2368	496.61	1154.94	1257.18	-66.7328	14.2603	-0.00398249	2.73552e-05	1.6757	1.41422	1	12	0.0106592	8.47869e-06	0.000314211	0.000730742	0.000795432	66.7328
55.5152	620.086	1562.74	1681.27	-68.3571	14.7229	-0.0039791	7.61326e-05	1.83452	1.58497	1	12	0.0106555	6.33777e-06	0.00021937	0.000552856	0.000594789	68.3571
37.5601	812.095	2163.4	2310.8	-69.4249	15.4788	-0.00395964	-1.41439e-05	1.95865	1.71675	1	13	0.0106789	4.62129e-06	0.000152084	0.000405147	0.000432751	69.4249
25.3653	1067.5	2978.26	3163.79	-70.2807	15.9379	-0.00396803	-1.32956e-05	2.10678	1.86693	1	13	0.0106517	3.36674e-06	0.000106648	0.000297541	0.000316076	70.2807
17.1327	1452.53	4130.34	4378.31	-70.6246	16.3508	-0.00397777	-1.12521e-05	2.2491	2.00156	1	13	0.0106558	2.43377e-06	7.57727e-05	0.000215464	0.000228399	70.6246
11.5912	2023.59	5661.49	6012.27	-70.3315	16.7603	-0.00398394	-7.88486e-06	2.42527	2.15052	1	13	0.0106497	1.77133e-06	5.59817e-05	0.000156622	0.000166326	70.3315
7.82815	2934.15	7748.17	8285.13	-69.2589	17.3413	-0.00397485	-1.19243e-05	2.62399	2.29489	1	13	0.0106515	1.28562e-06	4.27448e-05	0.000112876	0.000120698	69.2589
5.29302	4291.99	10488.1	11332.3	-67.7444	18.6048	-0.00396644	-4.11072e-06	2.86694	2.4557	1	14	0.0106564	9.40354e-07	3.34211e-05	8.16693e-05	8.82431e-05	67.7444
3.57551	6353.67	14060.4	15429.3	-65.6826	19.8193	-0.00396296	-6.55691e-06	3.1658	2.62897	1	14	0.0106526	6.90412e-07	2.66889e-05	5.90614e-05	6.48116e-05	65.6826
2.41723	9559.66	18509.5	20832.4	-62.6849	21.5965	-0.00396324	-4.94511e-06	3.55719	2.80813	1	14	0.0106491	5.1118e-07	2.20274e-05	4.26497e-05	4.80021e-05	62.6849
1.63271	14414.6	23684.7	27726.2	-58.6751	24.2074	-0.00396205	-7.7915e-06	4.11571	3.00329	1	14	0.0106486	3.84064e-07	1.87508e-05	3.08096e-05	3.60669e-05	58.6751
1.10206	21460.2	29250.7	36278.7	-53.7338	28.0564	-0.00396398	-9.49908e-06	4.93718	3.20958	1	14	0.0106498	2.93555e-07	1.63054e-05	2.22246e-05	2.75644e-05	53.7338
0.745609	30779.5	33946.1	45822.6	-47.8008	33.7281	-0.00396266	-1.01021e-05	6.2881	3.45095	1	14	0.01065	2.32419e-07	1.46589e-05	1.6167e-05	2.18233e-05	47.8008
0.503902	42267.5	37182.6	56294.7	-41.338	42.104	-0.0039632	-1.12923e-05	8.49443	3.70578	1	14	0.0106513	1.89206e-07	1.33374e-05	1.17329e-05	1.77637e-05	41.338
0.340103	54574.6	38053.1	66531.4	-34.8868	54.4974	-0.0039669	-1.02031e-05	12.2976	4.02297	1	14	0.0106515	1.60097e-07	1.23293e-05	8.5968e-06	1.50305e-05	34.8868
0.230213	66623.1	36224.4	75834.3	-28.5339	72.7907	-0.00395947	-1.14184e-05	19.0849	4.35472	1	14	0.0106529	1.40477e-07	1.15849e-05	6.29897e-06	1.31867e-05	28.5339
0.155473	77010.1	31437.6	83179.8	-22.2066	99.8618	-0.00395905	-1.40391e-05	32.5624	4.65136	1	14	0.0106512	1.2805e-07	1.11304e-05	4.54374e-06	1.20221e-05	22.2066
0.105049	85910	27099.4	90082.8	-17.5073	139.91	-0.00395769	-1.73871e-05	55.9073	5.05946	1	14	0.0106518	1.18245e-07	1.05867e-05	3.33946e-06	1.11009e-05	17.5073
0.0710227	92497.8	21667.1	95001.6	-13.1835	199.131	-0.00395601	-1.98322e-05	103.424	5.37975	1	14	0.010651	1.12114e-07	1.02487e-05	2.40071e-06	1.05261e-05	13.1835
0.0479883	95069.1	15875.5	96385.5	-9.48029	286.762	-0.00395631	-1.41424e-05	208.909	5.66745	1	14	0.0106505	1.10499e-07	1.02333e-05	1.70885e-06	1.0375e-05	9.48029
0.0324439	100973	12062	101691	-6.81211	416.362	-0.00394872	-3.00205e-05	406.694	5.72187	1	14	0.0106509	1.04738e-07	9.76426e-06	1.16641e-06	9.83368e-06	6.81211
0.0219206	102860	9960.09	103341	-5.53078	608.162	-0.00395539	-3.83709e-05	728.962	6.77147	1	14	0.0106509	1.03065e-07	9.63162e-06	9.32642e-07	9.67667e-06	5.53078
0.0148076	105657	10083.2	106137	-5.45144	892.08	-0.00395264	-5.01434e-05	1065.95	9.62061	1	14	0.0106515	1.00356e-07	9.37919e-06	8.95092e-07	9.42181e-06	5.45144
0.0100006	116567	7200.42	116789	-3.53471	1312.45	-0.0039575	-4.51895e-05	2210.21	8.40129	1	14	0.0106509	9.11981e-08	8.54615e-06	5.27902e-07	8.56244e-06	3.53471

File: 0720_06_EIS_0.5MTFSI_SymCell_OutsideGB_unsanded_60C_ThinCell_C03.mpt
EC-Lab ASCII FILE
Nb header lines : 62

Potentio Electrochemical Impedance Spectroscopy

Run on channel : 3 (SN 35515)
User :
CE vs. WE compliance from -10 V to 10 V
Electrode connection : standard
Ewe ctrl range : min = -5.00 V, max = 5.00 V
Safety Limits :
	Do not start on E overload
Acquisition started on : 07/20/2023 19:23:36
Technique started on : 07/20/2023 19:23:38
Saved on :
	File : 0720_06_EIS_0.5MTFSI_SymCell_OutsideGB_unsanded_60C_ThinCell_C03.mpr
	Directory : C:\Users\CESL\Documents\EC-Lab\Data\PhD\Leifer\Results\Zn Ion GPE\2023\0720\
	Host : 10.110.196.171
Device : VSP (SN 17241724)
Address : USB
EC-Lab for windows v11.16 (software)
Internet server v11.16 (firmware)
Command interpretor v11.16 (firmware)
Electrode material : Au/Pd
Initial state :
Electrolyte : NaCl (0.2M)
Comments : Fe(CN)63-/Fe(CN)64- 5.10-3 M
Reference electrode : SCE Saturated Calomel Electrode (0.241 V)
Electrode surface area : 0.001 cm²
Characteristic mass : 0.001 g
Equivalent Weight : 0.000 g/eq.
Density : 0.000 g/cm3
Cycle Definition : Charge/Discharge alternance
Mode                Single sine
E (V)               0.0000
vs.                 Eoc
tE (h:m:s)          0:00:0.0000
record              0
dI                  0.000
unit dI             mA
dt (s)              0.000
fi                  1.000
unit fi             MHz
ff                  10.000
unit ff             mHz
Nd                  6
Points              per decade
spacing             Logarithmic
Va (mV)             10.0
pw                  0.10
Na                  2
corr                1
E range min (V)     -5.000
E range max (V)     5.000
I Range             Auto
Bandwidth           5
nc cycles           0
goto Ns'            0
nr cycles           0
inc. cycle          0

freq/Hz	Re(Z)/Ohm	-Im(Z)/Ohm	|Z|/Ohm	Phase(Z)/deg	time/s	<Ewe>/V	<I>/mA	Cs/µF	Cp/µF	cycle number	I Range	|Ewe|/V	|I|/A	Re(Y)/Ohm-1	Im(Y)/Ohm-1	|Y|/Ohm-1	Phase(Y)/deg
1.00002e+06	-81.0752	25.9058	85.1135	-162.28	2.6391	0.00238659	-0.000998535	0.00614348	0.000569131	1	11	0.000303363	3.56422e-06	-0.0111916	0.00357603	0.011749	162.28
675752	40.6303	-10.0541	41.8558	13.8989	3.04809	0.00175203	-0.00112626	-0.0234255	-0.00135166	1	11	0.00146464	3.49924e-05	0.023192	-0.00573896	0.0238915	-13.8989
456640	23.852	-3.18797	24.0641	7.61281	3.75108	0.00176546	0.00503145	-0.109328	-0.00191875	1	10	0.00807053	0.000335376	0.0411894	-0.00550521	0.0415556	-7.61281
308574	19.9404	-1.14876	19.9735	3.29714	4.1601	0.00151172	0.00623427	-0.448985	-0.00148519	1	10	0.0109853	0.000549996	0.0499835	-0.00287953	0.0500664	-3.29714
208525	18.5953	0.035885	18.5953	-0.110569	4.70109	0.00149036	0.00515267	21.2691	7.92077e-05	1	10	0.010162	0.000546479	0.0537769	0.000103778	0.053777	0.110569
140908	18.1507	1.05617	18.1814	-3.33024	5.2421	0.00151083	0.00588182	1.06942	0.00360883	1	10	0.010108	0.000555957	0.0549085	0.00319508	0.0550014	3.33024
95214.8	18.1033	2.01964	18.2156	-6.36571	5.6511	0.00150395	0.00438622	0.82764	0.0101742	1	10	0.0107962	0.000592691	0.0545595	0.00608676	0.054898	6.36571
64345.7	18.3389	3.13621	18.6052	-9.70449	6.0601	0.00150969	0.00589674	0.78867	0.0224098	1	10	0.0104987	0.000564291	0.0529794	0.0090602	0.0537485	9.70449
43476.5	18.6982	4.50998	19.2344	-13.5606	6.46908	0.00151465	0.00510045	0.811691	0.0446252	1	10	0.0104173	0.000541595	0.0505407	0.0121903	0.0519901	13.5606
29384.8	19.2091	6.27492	20.208	-18.0903	6.87808	0.00151079	0.00487108	0.863157	0.0832259	1	10	0.0101775	0.000503635	0.0470391	0.015366	0.0494853	18.0903
19853.5	19.9876	8.64509	21.7771	-23.3896	7.28709	0.00149851	0.00561141	0.927285	0.146135	1	10	0.0101813	0.000467524	0.0421465	0.0182293	0.0459199	23.3896
13418	21.0179	11.8364	24.1216	-29.3865	7.56408	0.00152303	0.00532796	1.0021	0.241292	1	10	0.010485	0.000434673	0.0361223	0.0203427	0.0414566	29.3865
9082.03	22.4342	16.1798	27.6601	-35.7995	7.86034	0.00151245	0.00529998	1.08309	0.370598	1	10	0.0105368	0.00038094	0.0293227	0.0211478	0.0361532	35.7995
6140.96	24.2404	22.1342	32.8256	-42.3996	8.26365	0.00150557	0.00289434	1.1709	0.532381	1	10	0.0104816	0.000319312	0.0224965	0.0205418	0.030464	42.3996
4141.32	26.9114	30.4533	40.6402	-48.5332	9.2047	0.00151349	0.000485025	1.26196	0.708604	1	11	0.0100475	0.000247232	0.0162939	0.0184384	0.0246062	48.5332
2797.31	30.5259	41.7427	51.7134	-53.8225	9.67092	0.00150837	0.000447916	1.36301	0.888081	1	11	0.00957896	0.000185231	0.0114146	0.0156089	0.0193373	53.8225
1890.6	35.3834	57.15	67.2168	-58.237	10.1357	0.00151103	0.000488005	1.473	1.06483	1	11	0.00927072	0.000137923	0.00783146	0.0126491	0.0148772	58.237
1287.12	41.8402	77.8282	88.3619	-61.7376	10.6022	0.00150963	0.000518027	1.58879	1.23256	1	11	0.00909832	0.000102967	0.00535875	0.00996797	0.0113171	61.7376
863.066	50.7416	107.391	118.775	-64.7094	11.2912	0.00151485	0.000498633	1.71716	1.40376	1	11	0.0100133	8.43051e-05	0.0035968	0.00761233	0.0084193	64.7094
583.692	62.6297	147.138	159.912	-66.9428	11.7582	0.0015055	0.000430012	1.85316	1.5689	1	11	0.00995297	6.22401e-05	0.00244915	0.00575386	0.00625342	66.9428
394.117	78.7011	201.914	216.71	-68.7054	12.2252	0.00151034	0.00042535	1.99999	1.73622	1	11	0.00992363	4.57922e-05	0.0016758	0.00429941	0.00461446	68.7054
266.449	99.3167	279.331	296.461	-70.427	12.9407	0.00151194	-7.78998e-05	2.13839	1.8984	1	12	0.0100404	3.38676e-05	0.00113002	0.00317821	0.00337312	70.427
180.058	127.987	385.52	406.209	-71.6345	13.4057	0.00151903	9.3251e-06	2.29278	2.06517	1	12	0.00996252	2.45256e-05	0.000775651	0.0023364	0.00246178	71.6345
121.595	170.922	533.528	560.237	-72.2365	13.8661	0.00151288	-6.1697e-05	2.45328	2.22493	1	12	0.00992975	1.77242e-05	0.00054457	0.00169986	0.00178496	72.2365
82.2368	230.368	736.355	771.549	-72.6277	14.3213	0.00151122	-7.59053e-05	2.62825	2.39394	1	12	0.00990777	1.28414e-05	0.000386986	0.00123697	0.00129609	72.6277
55.5152	314.243	1023.23	1070.39	-72.9278	14.7829	0.00151109	-5.71104e-05	2.8018	2.56032	1	12	0.0098977	9.24679e-06	0.00027427	0.00089307	0.000934236	72.9278
37.5601	431.874	1429	1492.83	-73.184	15.2747	0.00151914	-3.79519e-05	2.96526	2.71708	1	12	0.00989539	6.6286e-06	0.000193792	0.000641223	0.000669868	73.184
25.3653	615.983	1984.42	2077.82	-72.7552	15.9839	0.00151549	-2.26106e-05	3.16189	2.88401	1	13	0.00991607	4.77233e-06	0.000142676	0.000459638	0.000481272	72.7552
17.1327	911.277	2746.03	2893.28	-71.6414	16.3978	0.00150913	-2.31588e-05	3.38291	3.04732	1	13	0.00990695	3.42412e-06	0.00010886	0.000328037	0.000345628	71.6414
11.5912	1376.25	3740.79	3985.92	-69.8012	16.8073	0.00149923	-2.81109e-05	3.67051	3.23292	1	13	0.00989695	2.48298e-06	8.66245e-05	0.000235454	0.000250883	69.8012
7.82815	2112.74	5087.83	5509.05	-67.4492	17.3883	0.00150707	-2.91121e-05	3.99603	3.40831	1	13	0.00989618	1.79635e-06	6.96132e-05	0.00016764	0.000181519	67.4492
5.29302	3262.41	6707.27	7458.61	-64.0617	18.2247	0.00150948	-6.09571e-07	4.48302	3.62532	1	13	0.00989589	1.32677e-06	5.8644e-05	0.000120567	0.000134073	64.0617
3.57551	5085.65	8640.92	10026.4	-59.5209	20.0474	0.00151246	-6.1736e-06	5.15136	3.82603	1	14	0.00989896	9.87286e-07	5.05887e-05	8.59542e-05	9.97364e-05	59.5209
2.41723	7727.58	10659	13165.5	-54.0585	21.8246	0.00151144	-6.91733e-06	6.17712	4.04898	1	14	0.00989859	7.51861e-07	4.45832e-05	6.14955e-05	7.59563e-05	54.0585
1.63271	11308.8	12230	16657.2	-47.2413	24.4355	0.00151257	2.34887e-06	7.97047	4.29671	1	14	0.00989666	5.94137e-07	4.07579e-05	4.40782e-05	6.00341e-05	47.2413
1.10206	15626.7	13000	20327.2	-39.7574	28.2845	0.0015203	2.02166e-06	11.1089	4.54365	1	14	0.00989632	4.86852e-07	3.78192e-05	3.14623e-05	4.91952e-05	39.7574
0.745609	19618.1	12660.4	23348.6	-32.8359	33.9552	0.00151678	1.36479e-06	16.8601	4.95719	1	14	0.00989727	4.23892e-07	3.59862e-05	2.32235e-05	4.28292e-05	32.8359
0.503902	23707	11683	26429.5	-26.2345	42.331	0.00151538	2.24855e-06	27.0345	5.28267	1	14	0.00989761	3.74492e-07	3.39391e-05	1.67255e-05	3.78366e-05	26.2345
0.340103	26772.4	9889.18	28540.5	-20.2732	54.7245	0.00151939	-1.12194e-06	47.3205	5.6813	1	14	0.00989818	3.46812e-07	3.28674e-05	1.21405e-05	3.5038e-05	20.2732
0.230213	28423.9	8137.7	29565.8	-15.9763	73.0178	0.00152159	9.27084e-06	84.9551	6.43593	1	14	0.00989664	3.34732e-07	3.25164e-05	9.30938e-06	3.38228e-05	15.9763
0.155473	30705.2	6323.08	31349.5	-11.6362	100.089	0.00152412	2.38091e-06	161.897	6.58618	1	14	0.00990226	3.15867e-07	3.12429e-05	6.43379e-06	3.18984e-05	11.6362
0.105049	34180.7	1139.34	34199.6	-1.90913	140.138	0.00152493	0.000136359	1329.76	1.47584	1	14	0.00989901	2.89448e-07	2.92238e-05	9.74118e-07	2.92401e-05	1.90913
0.0710227	32955.8	3713.14	33164.3	-6.42843	199.359	0.00151504	6.83892e-05	603.506	7.56525	1	14	0.00989832	2.98463e-07	2.99633e-05	3.37599e-06	3.01529e-05	6.42843
0.0479883	35061.7	3293.9	35216.1	-5.36694	286.99	0.00151929	6.81914e-05	1006.87	8.80871	1	14	0.00989873	2.81085e-07	2.82716e-05	2.656e-06	2.83961e-05	5.36694
0.0324439	36389	2288.64	36460.9	-3.59881	416.59	0.00152846	8.54618e-05	2143.43	8.44521	1	14	0.00989858	2.71485e-07	2.73726e-05	1.72157e-06	2.74267e-05	3.59881
0.0219206	39838.6	2254.68	39902.3	-3.23923	608.391	0.0015132	0.000123297	3220.2	10.2815	1	14	0.00989781	2.48051e-07	2.50212e-05	1.41608e-06	2.50612e-05	3.23923
0.0148076	42369.9	1813.36	42408.6	-2.45067	892.309	0.00152111	0.000193173	5927.21	10.837	1	14	0.00990042	2.33453e-07	2.35585e-05	1.00827e-06	2.35801e-05	2.45067
0.0100006	45780.4	2628.16	45855.8	-3.28563	1312.68	0.00152201	0.000258752	6055.37	19.891	1	14	0.00990069	2.15909e-07	2.17716e-05	1.24987e-06	2.18075e-05	3.28563