Folder: PhD_Markup_Experiment/Python_Codes/EIS_Processing (part 2)

File: 0720_06_EIS_0.5MTFSI_SymCell_OutsideGB_unsanded_RT_ThinCell_C03.mpt
EC-Lab ASCII FILE
Nb header lines : 62

Potentio Electrochemical Impedance Spectroscopy

Run on channel : 3 (SN 35515)
User :
CE vs. WE compliance from -10 V to 10 V
Electrode connection : standard
Ewe ctrl range : min = -5.00 V, max = 5.00 V
Safety Limits :
	Do not start on E overload
Acquisition started on : 07/20/2023 18:07:13
Technique started on : 07/20/2023 18:07:15
Saved on :
	File : 0720_06_EIS_0.5MTFSI_SymCell_OutsideGB_unsanded_RT_ThinCell_C03.mpr
	Directory : C:\Users\CESL\Documents\EC-Lab\Data\PhD\Leifer\Results\Zn Ion GPE\2023\0720\
	Host : 10.110.196.171
Device : VSP (SN 17241724)
Address : USB
EC-Lab for windows v11.16 (software)
Internet server v11.16 (firmware)
Command interpretor v11.16 (firmware)
Electrode material : Au/Pd
Initial state :
Electrolyte : NaCl (0.2M)
Comments : Fe(CN)63-/Fe(CN)64- 5.10-3 M
Reference electrode : SCE Saturated Calomel Electrode (0.241 V)
Electrode surface area : 0.001 cm²
Characteristic mass : 0.001 g
Equivalent Weight : 0.000 g/eq.
Density : 0.000 g/cm3
Cycle Definition : Charge/Discharge alternance
Mode                Single sine
E (V)               0.0000
vs.                 Eoc
tE (h:m:s)          0:00:0.0000
record              0
dI                  0.000
unit dI             mA
dt (s)              0.000
fi                  1.000
unit fi             MHz
ff                  10.000
unit ff             mHz
Nd                  6
Points              per decade
spacing             Logarithmic
Va (mV)             10.0
pw                  0.10
Na                  2
corr                1
E range min (V)     -5.000
E range max (V)     5.000
I Range             Auto
Bandwidth           5
nc cycles           0
goto Ns'            0
nr cycles           0
inc. cycle          0

freq/Hz	Re(Z)/Ohm	-Im(Z)/Ohm	|Z|/Ohm	Phase(Z)/deg	time/s	<Ewe>/V	<I>/mA	Cs/µF	Cp/µF	cycle number	I Range	|Ewe|/V	|I|/A	Re(Y)/Ohm-1	Im(Y)/Ohm-1	|Y|/Ohm-1	Phase(Y)/deg
1.00002e+06	448.918	42.7841	450.952	-5.44412	2.82008	-0.0602964	-0.000577664	0.00371989	3.34836e-05	1	12	0.00085535	1.89676e-06	0.00220753	0.000210388	0.00221753	5.44412
675752	248.042	-13.8259	248.427	3.19037	3.97908	-0.0609541	0.000345169	-0.0170349	-5.27628e-05	1	11	0.00642259	2.5853e-05	0.00401909	-0.000224024	0.00402532	-3.19037
456640	140.44	-4.85627	140.524	1.98044	4.38809	-0.0611103	0.000258274	-0.07177	-8.57133e-05	1	11	0.0105353	7.49719e-05	0.00711198	-0.000245925	0.00711623	-1.98044
308574	116.45	-2.08738	116.469	1.02692	4.9291	-0.0612014	0.000450338	-0.247092	-7.93677e-05	1	11	0.0101306	8.69816e-05	0.00858462	-0.00015388	0.008586	-1.02692
208525	107.832	0.276809	107.832	-0.14708	5.3381	-0.06121	0.000471596	2.75728	1.81695e-05	1	11	0.0107994	0.00010015	0.00927363	2.38058e-05	0.00927366	0.14708
140908	104.004	2.64274	104.037	-1.45558	5.74708	-0.0612004	0.000395516	0.427396	0.000275779	1	11	0.0107347	0.000103181	0.00960886	0.000244162	0.00961196	1.45558
95214.8	102.791	5.09036	102.916	-2.83507	6.15609	-0.0612201	0.000329692	0.328373	0.00080333	1	11	0.010626	0.000103249	0.00970472	0.000480594	0.00971662	2.83507
64345.7	102.588	8.04359	102.903	-4.48321	6.56508	-0.0611942	0.000453508	0.307504	0.00187887	1	11	0.0105191	0.000102224	0.00968817	0.000759619	0.00971791	4.48321
43476.5	103.213	11.589	103.861	-6.40649	6.97408	-0.0612012	0.000607159	0.315878	0.00393282	1	11	0.0104044	0.000100176	0.0095681	0.00107433	0.00962823	6.40649
29384.8	104.474	16.4555	105.762	-8.951	7.3831	-0.0612087	0.000334167	0.329145	0.007968	1	11	0.0103791	9.81364e-05	0.00934004	0.00147113	0.00945519	8.951
19853.5	106.077	22.9461	108.53	-12.2059	7.79208	-0.0611954	0.000421249	0.34936	0.0156167	1	11	0.0101766	9.37674e-05	0.00900571	0.00194808	0.009214	12.2059
13418	108.711	31.6526	113.225	-16.2336	8.2011	-0.0611845	0.000504041	0.374734	0.0292857	1	11	0.0101332	8.94962e-05	0.00847981	0.00246901	0.00883195	16.2336
9082.03	112.22	43.744	120.445	-21.296	8.49833	-0.0612062	0.000291652	0.400607	0.0528419	1	11	0.0105199	8.73419e-05	0.00773562	0.00301538	0.00830255	21.296
6140.96	117.363	60.3706	131.98	-27.221	8.90166	-0.0612072	0.000220606	0.429297	0.0898244	1	11	0.0106418	8.06319e-05	0.00673776	0.00346586	0.00757691	27.221
4141.32	124.765	83.1653	149.942	-33.6865	9.36667	-0.0611782	0.000502548	0.462103	0.142159	1	11	0.0106193	7.08224e-05	0.00554936	0.00369908	0.00666923	33.6865
2797.31	135.639	114.24	177.337	-40.1053	9.83296	-0.0611714	0.000530892	0.498037	0.206678	1	11	0.0105662	5.95825e-05	0.00431303	0.00363259	0.00563897	40.1053
1890.6	150.124	156.286	216.708	-46.1521	10.2977	-0.061178	0.000608277	0.538642	0.280149	1	11	0.0104978	4.8442e-05	0.00319668	0.0033279	0.00461451	46.1521
1287.12	171.778	211.307	272.32	-50.8912	10.7642	-0.0611685	0.000557929	0.58518	0.352335	1	11	0.0104556	3.83946e-05	0.00231637	0.0028494	0.00367215	50.8912
863.066	202.842	288.534	352.699	-54.8925	11.4832	-0.0611988	2.86236e-05	0.639114	0.427724	1	12	0.0107652	3.05224e-05	0.0016306	0.00231947	0.00283528	54.8925
583.692	243.639	387.989	458.144	-57.8731	11.9502	-0.0612027	7.3821e-05	0.702775	0.504026	1	12	0.0105955	2.31269e-05	0.00116076	0.00184849	0.00218272	57.8731
394.117	298.2	520.673	600.019	-60.1993	12.4172	-0.0612027	8.20063e-05	0.775586	0.584022	1	12	0.0104995	1.74986e-05	0.00082828	0.00144622	0.00166661	60.1993
266.449	373.92	695.331	789.494	-61.7305	12.8807	-0.061208	6.14212e-05	0.859041	0.666345	1	12	0.0104452	1.32302e-05	0.000599902	0.00111556	0.00126663	61.7305
180.058	459.769	931.798	1039.05	-63.7373	13.3457	-0.0612158	9.84145e-05	0.948608	0.762875	1	12	0.0104365	1.00442e-05	0.000425855	0.000863068	0.000962413	63.7373
121.595	583.297	1251.06	1380.36	-65.0031	13.8061	-0.0612107	8.21739e-05	1.04622	0.859405	1	12	0.010407	7.53936e-06	0.000306129	0.00065659	0.000724449	65.0031
82.2368	704.104	1711.52	1850.69	-67.6382	14.2613	-0.0612122	5.84377e-05	1.13076	0.96709	1	12	0.0104085	5.6241e-06	0.000205574	0.000499704	0.000540338	67.6382
55.5152	921.592	2318.54	2494.98	-68.3228	14.9739	-0.0612049	1.88331e-06	1.2365	1.06779	1	13	0.0104317	4.18105e-06	0.000148048	0.000372459	0.000400804	68.3228
37.5601	1187.93	3173.41	3388.47	-69.4772	15.4657	-0.0612062	8.96257e-08	1.33526	1.17115	1	13	0.0104185	3.0747e-06	0.000103463	0.000276388	0.000295119	69.4772
25.3653	1549.5	4389.16	4654.64	-70.5556	15.9249	-0.0612024	-5.83475e-07	1.42955	1.27113	1	13	0.0104014	2.23462e-06	7.15183e-05	0.000202586	0.000214839	70.5556
17.1327	2100.92	6033.97	6389.26	-70.8028	16.3388	-0.0612033	-4.43181e-06	1.53954	1.37308	1	13	0.0103969	1.62725e-06	5.14645e-05	0.000147809	0.000156513	70.8028
11.5912	2870.74	8283.8	8767.12	-70.8863	16.7483	-0.0612159	-1.99419e-07	1.65753	1.47981	1	13	0.0103982	1.18605e-06	3.73491e-05	0.000107774	0.000114062	70.8863
7.82815	4167.31	11442.1	12177.3	-69.9879	17.6373	-0.0611976	1.38195e-06	1.77688	1.56878	1	14	0.010409	8.54784e-07	2.8103e-05	7.71615e-05	8.21199e-05	69.9879
5.29302	6150.19	15598.7	16767.3	-68.4818	18.4737	-0.0612014	2.63228e-06	1.92766	1.66831	1	14	0.0104067	6.20654e-07	2.18757e-05	5.5483e-05	5.96398e-05	68.4818
3.57551	9217.17	21016.5	22948.8	-66.3193	19.6883	-0.0611998	3.57314e-06	2.11798	1.77632	1	14	0.0103961	4.53011e-07	1.75015e-05	3.9906e-05	4.35752e-05	66.3193
2.41723	13997.9	27629.3	30972.8	-63.1318	21.4655	-0.0612032	2.26096e-06	2.38305	1.89631	1	14	0.0104001	3.3578e-07	1.45915e-05	2.8801e-05	3.22864e-05	63.1318
1.63271	27223.9	38703.4	47319.1	-54.8775	24.0764	-0.0611956	-4.4411e-05	2.51862	1.68496	1	14	0.0103969	2.1972e-07	1.21585e-05	1.72853e-05	2.11331e-05	54.8775
1.10206	31356.9	41708.1	52180.7	-53.0635	27.9254	-0.0611944	-9.16218e-06	3.46253	2.21216	1	14	0.010396	1.9923e-07	1.15163e-05	1.5318e-05	1.91642e-05	53.0635
0.745609	44287.6	50800	67394.6	-48.9179	33.5962	-0.0611973	-3.19154e-06	4.2019	2.38738	1	14	0.0103982	1.54289e-07	9.75062e-06	1.11844e-05	1.4838e-05	48.9179
0.503902	60094.1	57529.3	83192.1	-43.7509	41.972	-0.0611937	2.86161e-07	5.49016	2.62542	1	14	0.0103986	1.24995e-07	8.68296e-06	8.31238e-06	1.20204e-05	43.7509
0.340103	77543.6	62583.5	99647.9	-38.9062	54.3655	-0.061194	4.73175e-06	7.47739	2.9494	1	14	0.0103975	1.04342e-07	7.80926e-06	6.30266e-06	1.00353e-05	38.9062
0.230213	96766.8	65659.4	116940	-34.1581	72.6587	-0.0611881	1.2086e-05	10.5292	3.31941	1	14	0.0103984	8.89204e-08	7.0762e-06	4.80143e-06	8.55139e-06	34.1581
0.155473	117668	68015.5	135911	-30.0292	99.73	-0.0611889	2.8482e-05	15.0508	3.76934	1	14	0.0103981	7.65066e-08	6.37013e-06	3.68213e-06	7.35776e-06	30.0292
0.105049	149092	68608.5	164121	-24.7107	139.779	-0.0611964	3.58455e-05	22.0826	3.85905	1	14	0.0103985	6.33592e-08	5.53514e-06	2.54714e-06	6.09308e-06	24.7107
0.0710227	171037	60346.7	181370	-19.4343	199	-0.0611956	4.39366e-05	37.1338	4.11096	1	14	0.0103983	5.7332e-08	5.19943e-06	1.83451e-06	5.51358e-06	19.4343
0.0479883	202252	69809.8	213961	-19.0427	286.631	-0.0611857	5.6545e-05	47.5082	5.05744	1	14	0.0103982	4.85984e-08	4.41798e-06	1.52492e-06	4.67375e-06	19.0427
0.0324439	259197	76710.4	270310	-16.4863	416.231	-0.0612062	6.09773e-05	63.9488	5.15011	1	14	0.0103985	3.8469e-08	3.54736e-06	1.04986e-06	3.69946e-06	16.4863
0.0219206	278009	46559.2	281881	-9.50731	608.032	-0.0611922	7.09176e-05	155.942	4.25444	1	14	0.0103998	3.68943e-08	3.49887e-06	5.85969e-07	3.5476e-06	9.50731
0.0148076	296024	85634.4	308161	-16.1342	891.95	-0.0611952	6.40208e-05	125.512	9.69229	1	14	0.010399	3.37452e-08	3.11724e-06	9.01761e-07	3.24505e-06	16.1342
0.0100006	320765	93180.3	334025	-16.1983	1312.32	-0.0611887	3.34416e-05	170.792	13.291	1	14	0.0104007	3.11374e-08	2.87494e-06	8.35153e-07	2.99379e-06	16.1983